trials.thisRepN,trials.thisTrialN,trials.thisN,trials.thisIndex,thisRow.t,notes,trial.started,num_distr,fixation.started,target.started,mouse.started,trial.stopped,mouse.x,mouse.y,mouse.leftButton,mouse.midButton,mouse.rightButton,mouse.time,mouse.clicked_name,participant,session,date,expName,psychopyVersion,frameRate,expStart,
0,0,0,0,0.08311589993536472,,0.022614100016653538,10,0.08311589993536472,0.08311589993536472,0.05481219990178943,2.9855109001509845,[-0.08333333333333333],[0.006666666666666667],[1],[0],[0],[2.9299186998978257],['target'],140787,001,2024-10-10_18h53.20.830,visualsearch,2024.1.5,None,2024-10-10 18h53.28.115630 +0530,
1,0,1,0,3.032170500140637,,2.9891542000696063,10,3.032170500140637,3.032170500140637,0.028820399660617113,5.3033119002357125,[0.4483333333333333],[-0.4066666666666667],[1],[0],[0],[2.2856193999759853],['target'],140787,001,2024-10-10_18h53.20.830,visualsearch,2024.1.5,None,2024-10-10 18h53.28.115630 +0530,
2,0,2,0,5.330661099869758,,5.3059551999904215,5,5.330661099869758,5.330661099869758,0.013897699769586325,6.569884399883449,[0.32166666666666666],[0.3383333333333333],[1],[0],[0],[1.2502195998094976],['target'],140787,001,2024-10-10_18h53.20.830,visualsearch,2024.1.5,None,2024-10-10 18h53.28.115630 +0530,
3,0,3,0,6.630150800105184,,6.573803999926895,10,6.630150800105184,6.630150800105184,0.03705580020323396,8.200546900276095,[-0.31333333333333335],[-0.055],[1],[0],[0],[1.589913500007242],['target'],140787,001,2024-10-10_18h53.20.830,visualsearch,2024.1.5,None,2024-10-10 18h53.28.115630 +0530,
4,0,4,0,8.245202099904418,,8.20328629994765,5,8.245202099904418,8.245202099904418,0.018864300101995468,9.616615499835461,[0.5066666666666667],[0.09],[1],[0],[0],[1.3947283001616597],['target'],140787,001,2024-10-10_18h53.20.830,visualsearch,2024.1.5,None,2024-10-10 18h53.28.115630 +0530,
5,0,5,0,9.66109099984169,,9.620040699839592,5,9.66109099984169,9.66109099984169,0.018507199827581644,10.94902449985966,[0.06833333333333333],[0.085],[1],[0],[0],[1.310744300018996],['target'],140787,001,2024-10-10_18h53.20.830,visualsearch,2024.1.5,None,2024-10-10 18h53.28.115630 +0530,
6,0,6,0,10.977619499899447,,10.951906899921596,5,10.977619499899447,10.977619499899447,0.014264700002968311,17.96198649983853,[0.06833333333333333],[0.085],[1],[0],[0],[6.996183899696916],[],140787,001,2024-10-10_18h53.20.830,visualsearch,2024.1.5,None,2024-10-10 18h53.28.115630 +0530,
7,0,7,0,18.023170200176537,,17.964880700223148,10,18.023170200176537,18.023170200176537,0.031610299833118916,20.376543799880892,[0.32666666666666666],[0.3283333333333333],[1],[0],[0],[2.380270100198686],['target'],140787,001,2024-10-10_18h53.20.830,visualsearch,2024.1.5,None,2024-10-10 18h53.28.115630 +0530,
8,0,8,0,20.438958700280637,,20.37928680004552,10,20.438958700280637,20.438958700280637,0.029001399874687195,22.06181399989873,[0.36833333333333335],[0.33166666666666667],[1],[0],[0],[1.6536412998102605],['target'],140787,001,2024-10-10_18h53.20.830,visualsearch,2024.1.5,None,2024-10-10 18h53.28.115630 +0530,
9,0,9,0,22.104619500227273,,22.064597900025547,10,22.104619500227273,22.104619500227273,0.025676699820905924,24.360193899832666,[0.35833333333333334],[-0.2916666666666667],[1],[0],[0],[2.2701541003771126],['target'],140787,001,2024-10-10_18h53.20.830,visualsearch,2024.1.5,None,2024-10-10 18h53.28.115630 +0530,
10,0,10,0,24.41968970000744,,24.364126999862492,10,24.41968970000744,24.41968970000744,0.03137709992006421,26.62220730027184,[-0.43333333333333335],[0.145],[1],[0],[0],[2.2273544003255665],['target'],140787,001,2024-10-10_18h53.20.830,visualsearch,2024.1.5,None,2024-10-10 18h53.28.115630 +0530,
11,0,11,0,26.68604650022462,,26.626466600224376,10,26.68604650022462,26.68604650022462,0.028154400177299976,28.505909000057727,[0.185],[-0.08],[1],[0],[0],[1.85186169994995],['target'],140787,001,2024-10-10_18h53.20.830,visualsearch,2024.1.5,None,2024-10-10 18h53.28.115630 +0530,
12,0,12,0,28.55178129998967,,28.508571200072765,5,28.55178129998967,28.55178129998967,0.015498599968850613,30.424056500196457,[-0.3933333333333333],[0.275],[1],[0],[0],[1.9002028000541031],['target'],140787,001,2024-10-10_18h53.20.830,visualsearch,2024.1.5,None,2024-10-10 18h53.28.115630 +0530,
13,0,13,0,30.48351150006056,,30.42669550003484,10,30.48351150006056,30.48351150006056,0.03135409997776151,31.98881490016356,[0.16666666666666666],[0.10666666666666667],[1],[0],[0],[1.5309516000561416],['target'],140787,001,2024-10-10_18h53.20.830,visualsearch,2024.1.5,None,2024-10-10 18h53.28.115630 +0530,
14,0,14,0,32.03255790006369,,31.992943900171667,10,32.03255790006369,32.03255790006369,0.027894900180399418,33.48688310012221,[-0.41333333333333333],[0.21333333333333335],[1],[0],[0],[1.466601399704814],['target'],140787,001,2024-10-10_18h53.20.830,visualsearch,2024.1.5,None,2024-10-10 18h53.28.115630 +0530,
15,0,15,0,33.5151734999381,,33.48965590028092,5,33.5151734999381,33.5151734999381,0.01440260000526905,35.25249420013279,[0.23666666666666666],[-0.4],[1],[0],[0],[1.7486654999665916],['target'],140787,001,2024-10-10_18h53.20.830,visualsearch,2024.1.5,None,2024-10-10 18h53.28.115630 +0530,
16,0,16,0,35.28010950004682,,35.25534800020978,5,35.28010950004682,35.28010950004682,0.01428679982200265,36.868645099923015,[0.14833333333333334],[-0.06333333333333334],[1],[0],[0],[1.5992275001481175],['target'],140787,001,2024-10-10_18h53.20.830,visualsearch,2024.1.5,None,2024-10-10 18h53.28.115630 +0530,
17,0,17,0,36.92985730012879,,36.87126850010827,10,36.92985730012879,36.92985730012879,0.029515300411731005,38.74914260022342,[-0.051666666666666666],[-0.12833333333333333],[1],[0],[0],[1.8485934999771416],['target'],140787,001,2024-10-10_18h53.20.830,visualsearch,2024.1.5,None,2024-10-10 18h53.28.115630 +0530,
18,0,18,0,38.779552599880844,,38.751858400180936,5,38.779552599880844,38.779552599880844,0.01307469978928566,41.58373200008646,[-0.33],[-0.35333333333333333],[1],[0],[0],[2.818987499922514],['target'],140787,001,2024-10-10_18h53.20.830,visualsearch,2024.1.5,None,2024-10-10 18h53.28.115630 +0530,
19,0,19,0,41.61097430018708,,41.58639519987628,5,41.61097430018708,41.61097430018708,0.01308829989284277,43.833074899856,[0.46],[-0.31],[1],[0],[0],[2.2337964000180364],['target'],140787,001,2024-10-10_18h53.20.830,visualsearch,2024.1.5,None,2024-10-10 18h53.28.115630 +0530,
20,0,20,0,43.859739399980754,,43.83603470027447,5,43.859739399980754,43.859739399980754,0.013304099906235933,45.23092140024528,[0.07833333333333334],[-0.06833333333333333],[1],[0],[0],[1.3817947003990412],['target'],140787,001,2024-10-10_18h53.20.830,visualsearch,2024.1.5,None,2024-10-10 18h53.28.115630 +0530,
21,0,21,0,45.293172399979085,,45.233525400049984,10,45.293172399979085,45.293172399979085,0.030750699806958437,46.96180070005357,[0.37],[-0.085],[1],[0],[0],[1.6976908002980053],['target'],140787,001,2024-10-10_18h53.20.830,visualsearch,2024.1.5,None,2024-10-10 18h53.28.115630 +0530,
22,0,22,0,46.99185500014573,,46.96447989996523,5,46.99185500014573,46.99185500014573,0.014399099629372358,48.8306577000767,[-0.38166666666666665],[-0.4216666666666667],[1],[0],[0],[1.8519687000662088],['target'],140787,001,2024-10-10_18h53.20.830,visualsearch,2024.1.5,None,2024-10-10 18h53.28.115630 +0530,
23,0,23,0,48.85822830023244,,48.83353820024058,5,48.85822830023244,48.85822830023244,0.01386599987745285,51.512853499967605,[-0.4083333333333333],[0.41833333333333333],[1],[0],[0],[2.66566939977929],['target'],140787,001,2024-10-10_18h53.20.830,visualsearch,2024.1.5,None,2024-10-10 18h53.28.115630 +0530,
24,0,24,0,51.5724173001945,,51.5173184000887,10,51.5724173001945,51.5724173001945,0.03161499975249171,53.06123779993504,[-0.2833333333333333],[0.43333333333333335],[1],[0],[0],[1.5129259997047484],['target'],140787,001,2024-10-10_18h53.20.830,visualsearch,2024.1.5,None,2024-10-10 18h53.28.115630 +0530,
25,0,25,0,53.12203190010041,,53.063913099933416,10,53.12203190010041,53.12203190010041,0.026744999922811985,54.74410009989515,[-0.37333333333333335],[-0.015],[1],[0],[0],[1.6536191999912262],['target'],140787,001,2024-10-10_18h53.20.830,visualsearch,2024.1.5,None,2024-10-10 18h53.28.115630 +0530,
26,0,26,0,54.80382560007274,,54.7483065999113,10,54.80382560007274,54.80382560007274,0.030167399905622005,56.55646170023829,[-0.37333333333333335],[-0.015],[1],[0],[0],[1.778208500239998],['target'],140787,001,2024-10-10_18h53.20.830,visualsearch,2024.1.5,None,2024-10-10 18h53.28.115630 +0530,
27,0,27,0,56.62008580006659,,56.55920899985358,10,56.62008580006659,56.62008580006659,0.031102099921554327,58.308284000027925,[-0.4816666666666667],[0.3283333333333333],[1],[0],[0],[1.7182443998754025],['target'],140787,001,2024-10-10_18h53.20.830,visualsearch,2024.1.5,None,2024-10-10 18h53.28.115630 +0530,
28,0,28,0,58.35112540004775,,58.311331800185144,5,58.35112540004775,58.35112540004775,0.017693900037556887,60.70610579987988,[0.16],[-0.25833333333333336],[1],[0],[0],[2.377252500038594],['target'],140787,001,2024-10-10_18h53.20.830,visualsearch,2024.1.5,None,2024-10-10 18h53.28.115630 +0530,
29,0,29,0,60.73336789989844,,60.70889279991388,5,60.73336789989844,60.73336789989844,0.013540700078010559,62.588179000187665,[0.34],[-0.40166666666666667],[1],[0],[0],[1.8659607996232808],['target'],140787,001,2024-10-10_18h53.20.830,visualsearch,2024.1.5,None,2024-10-10 18h53.28.115630 +0530,
30,0,30,0,62.63419939996675,,62.5909792999737,5,62.63419939996675,62.63419939996675,0.01748660020530224,64.42070219991729,[-0.15],[-0.31833333333333336],[1],[0],[0],[1.8124589999206364],['target'],140787,001,2024-10-10_18h53.20.830,visualsearch,2024.1.5,None,2024-10-10 18h53.28.115630 +0530,
31,0,31,0,64.46563320001587,,64.42339090025052,10,64.46563320001587,64.46563320001587,0.02656219992786646,66.4537641000934,[-0.2],[0.31333333333333335],[1],[0],[0],[2.0039559002034366],['target'],140787,001,2024-10-10_18h53.20.830,visualsearch,2024.1.5,None,2024-10-10 18h53.28.115630 +0530,
32,0,32,0,66.51436340017244,,66.45761890010908,10,66.51436340017244,66.51436340017244,0.028137799818068743,68.63522370019928,[-0.011666666666666667],[0.43833333333333335],[1],[0],[0],[2.150238099973649],['target'],140787,001,2024-10-10_18h53.20.830,visualsearch,2024.1.5,None,2024-10-10 18h53.28.115630 +0530,
33,0,33,0,68.66339090000838,,68.63791269995272,5,68.66339090000838,68.66339090000838,0.013500900007784367,71.0710628000088,[0.19166666666666668],[-0.38166666666666665],[1],[0],[0],[2.4172052000649273],['target'],140787,001,2024-10-10_18h53.20.830,visualsearch,2024.1.5,None,2024-10-10 18h53.28.115630 +0530,
34,0,34,0,71.1122420001775,,71.07506030006334,5,71.1122420001775,71.1122420001775,0.014218300115317106,73.81484450027347,[-0.37333333333333335],[0.03166666666666667],[1],[0],[0],[2.726136399898678],['target'],140787,001,2024-10-10_18h53.20.830,visualsearch,2024.1.5,None,2024-10-10 18h53.28.115630 +0530,
35,0,35,0,73.86063260026276,,73.81841879989952,5,73.86063260026276,73.86063260026276,0.01815719995647669,76.11427700007334,[-0.08],[0.34],[1],[0],[0],[2.2780553000047803],['target'],140787,001,2024-10-10_18h53.20.830,visualsearch,2024.1.5,None,2024-10-10 18h53.28.115630 +0530,
36,0,36,0,76.15944179985672,,76.1168813998811,10,76.15944179985672,76.15944179985672,0.024718099739402533,78.44591209990904,[0.4683333333333333],[-0.04],[1],[0],[0],[2.3045332999899983],['target'],140787,001,2024-10-10_18h53.20.830,visualsearch,2024.1.5,None,2024-10-10 18h53.28.115630 +0530,
37,0,37,0,78.47510540019721,,78.44853659998626,5,78.47510540019721,78.47510540019721,0.01308900024741888,79.9129340001382,[0.005],[0.12666666666666668],[1],[0],[0],[1.4515146999619901],['target'],140787,001,2024-10-10_18h53.20.830,visualsearch,2024.1.5,None,2024-10-10 18h53.28.115630 +0530,
38,0,38,0,79.94172349991277,,79.91660179989412,5,79.94172349991277,79.94172349991277,0.013568299822509289,82.31200330005959,[-0.041666666666666664],[0.43],[1],[0],[0],[2.3823859998956323],['target'],140787,001,2024-10-10_18h53.20.830,visualsearch,2024.1.5,None,2024-10-10 18h53.28.115630 +0530,
39,0,39,0,82.35610130010173,,82.31684700027108,5,82.35610130010173,82.35610130010173,0.016291500069200993,84.4109268002212,[-0.38666666666666666],[-0.30666666666666664],[1],[0],[0],[2.0785705000162125],['target'],140787,001,2024-10-10_18h53.20.830,visualsearch,2024.1.5,None,2024-10-10 18h53.28.115630 +0530,
40,0,40,0,84.45406719995663,,84.41580320009962,5,84.45406719995663,84.45406719995663,0.01316610025241971,85.82750250026584,[-0.14],[0.08333333333333333],[1],[0],[0],[1.398675600066781],['target'],140787,001,2024-10-10_18h53.20.830,visualsearch,2024.1.5,None,2024-10-10 18h53.28.115630 +0530,
41,0,41,0,85.85484910011292,,85.83016039989889,5,85.85484910011292,85.85484910011292,0.013108900282531977,88.14085590001196,[0.39166666666666666],[0.17666666666666667],[1],[0],[0],[2.2977547999471426],['target'],140787,001,2024-10-10_18h53.20.830,visualsearch,2024.1.5,None,2024-10-10 18h53.28.115630 +0530,
42,0,42,0,88.18660160014406,,88.14553679991513,10,88.18660160014406,88.18660160014406,0.028413900174200535,89.79152180021629,[0.11333333333333333],[0.165],[1],[0],[0],[1.618338800035417],['target'],140787,001,2024-10-10_18h53.20.830,visualsearch,2024.1.5,None,2024-10-10 18h53.28.115630 +0530,
43,0,43,0,89.8523833998479,,89.7941805999726,10,89.8523833998479,89.8523833998479,0.028958800248801708,91.25598570005968,[0.225],[0.4083333333333333],[1],[0],[0],[1.4330059997737408],['target'],140787,001,2024-10-10_18h53.20.830,visualsearch,2024.1.5,None,2024-10-10 18h53.28.115630 +0530,
44,0,44,0,91.3025314998813,,91.25895969988778,5,91.3025314998813,91.3025314998813,0.017371600028127432,92.87352350028232,[0.2833333333333333],[0.07166666666666667],[1],[0],[0],[1.5974095999263227],['target'],140787,001,2024-10-10_18h53.20.830,visualsearch,2024.1.5,None,2024-10-10 18h53.28.115630 +0530,
45,0,45,0,92.93457800010219,,92.87745429994538,10,92.93457800010219,92.93457800010219,0.0294323000125587,94.87088970001787,[-0.4483333333333333],[-0.15666666666666668],[1],[0],[0],[1.964924099855125],['target'],140787,001,2024-10-10_18h53.20.830,visualsearch,2024.1.5,None,2024-10-10 18h53.28.115630 +0530,
46,0,46,0,94.91647939989343,,94.87523759994656,5,94.91647939989343,94.91647939989343,0.020261999685317278,97.3040684000589,[0.18],[-0.22833333333333333],[1],[0],[0],[2.4093618001788855],['target'],140787,001,2024-10-10_18h53.20.830,visualsearch,2024.1.5,None,2024-10-10 18h53.28.115630 +0530,
47,0,47,0,97.34752740012482,,97.30696120020002,10,97.34752740012482,97.34752740012482,0.026989399921149015,99.90177869983017,[0.31333333333333335],[0.225],[1],[0],[0],[2.5680720997042954],['target'],140787,001,2024-10-10_18h53.20.830,visualsearch,2024.1.5,None,2024-10-10 18h53.28.115630 +0530,
48,0,48,0,99.92956010019407,,99.90444480022416,5,99.92956010019407,99.92956010019407,0.013393699657171965,102.2189086000435,[-0.205],[-0.25666666666666665],[1],[0],[0],[2.301269100047648],['target'],140787,001,2024-10-10_18h53.20.830,visualsearch,2024.1.5,None,2024-10-10 18h53.28.115630 +0530,
49,0,49,0,102.27904860023409,,102.22343440027907,10,102.27904860023409,102.27904860023409,0.029821999836713076,103.75162710016593,[-0.30666666666666664],[0.2866666666666667],[1],[0],[0],[1.4990276996977627],['target'],140787,001,2024-10-10_18h53.20.830,visualsearch,2024.1.5,None,2024-10-10 18h53.28.115630 +0530,
50,0,50,0,103.79487510025501,,103.75431070011109,5,103.79487510025501,103.79487510025501,0.017605299595743418,105.86525280028582,[-0.43666666666666665],[-0.15333333333333332],[1],[0],[0],[2.0936079998500645],['target'],140787,001,2024-10-10_18h53.20.830,visualsearch,2024.1.5,None,2024-10-10 18h53.28.115630 +0530,
51,0,51,0,105.89389960002154,,105.86793790012598,5,105.89389960002154,105.89389960002154,0.013307599816471338,107.51409649988636,[0.005],[0.32],[1],[0],[0],[1.633062900044024],['target'],140787,001,2024-10-10_18h53.20.830,visualsearch,2024.1.5,None,2024-10-10 18h53.28.115630 +0530,
52,0,52,0,107.5429572998546,,107.51678950013593,5,107.5429572998546,107.5429572998546,0.013174599967896938,109.21419040020555,[-0.23666666666666666],[0.11166666666666666],[1],[0],[0],[1.6844480000436306],['target'],140787,001,2024-10-10_18h53.20.830,visualsearch,2024.1.5,None,2024-10-10 18h53.28.115630 +0530,
53,0,53,0,109.24272970017046,,109.21696830028668,5,109.24272970017046,109.24272970017046,0.013540599960833788,111.12977360002697,[-0.36],[0.16166666666666665],[1],[0],[0],[1.8994958000257611],['target'],140787,001,2024-10-10_18h53.20.830,visualsearch,2024.1.5,None,2024-10-10 18h53.28.115630 +0530,
54,0,54,0,111.1899764998816,,111.13421460008249,10,111.1899764998816,111.1899764998816,0.03028560010716319,114.72663509985432,[0.06166666666666667],[-0.43166666666666664],[1],[0],[0],[3.5628514997661114],['target'],140787,001,2024-10-10_18h53.20.830,visualsearch,2024.1.5,None,2024-10-10 18h53.28.115630 +0530,
55,0,55,0,114.77311519999057,,114.72937089996412,10,114.77311519999057,114.77311519999057,0.026979099959135056,117.79126910027117,[-0.10666666666666667],[0.25],[1],[0],[0],[3.035149599891156],['target'],140787,001,2024-10-10_18h53.20.830,visualsearch,2024.1.5,None,2024-10-10 18h53.28.115630 +0530,
56,0,56,0,117.83828000025824,,117.793942600023,10,117.83828000025824,117.83828000025824,0.026499200146645308,119.7766352002509,[-0.08666666666666667],[-0.3566666666666667],[1],[0],[0],[1.9564567999914289],['target'],140787,001,2024-10-10_18h53.20.830,visualsearch,2024.1.5,None,2024-10-10 18h53.28.115630 +0530,
57,0,57,0,119.83711880026385,,119.77997229993343,10,119.83711880026385,119.83711880026385,0.029440300073474646,121.32559340028092,[-0.5],[0.24],[1],[0],[0],[1.5164030999876559],['target'],140787,001,2024-10-10_18h53.20.830,visualsearch,2024.1.5,None,2024-10-10 18h53.28.115630 +0530,
58,0,58,0,121.35329530015588,,121.32831569993868,5,121.35329530015588,121.35329530015588,0.014973399695008993,123.21036050003022,[0.19166666666666668],[0.37666666666666665],[1],[0],[0],[1.8673542998731136],['target'],140787,001,2024-10-10_18h53.20.830,visualsearch,2024.1.5,None,2024-10-10 18h53.28.115630 +0530,
59,0,59,0,123.2524244999513,,123.21493649994954,5,123.2524244999513,123.2524244999513,0.015029000118374825,124.93958000000566,[-0.12],[0.38333333333333336],[1],[0],[0],[1.7104982999153435],['target'],140787,001,2024-10-10_18h53.20.830,visualsearch,2024.1.5,None,2024-10-10 18h53.28.115630 +0530,
60,0,60,0,124.96800830028951,,124.94244709983468,5,124.96800830028951,124.96800830028951,0.013746900018304586,126.56926400028169,[-0.09666666666666666],[0.3933333333333333],[1],[0],[0],[1.6133206002414227],['target'],140787,001,2024-10-10_18h53.20.830,visualsearch,2024.1.5,None,2024-10-10 18h53.28.115630 +0530,
61,0,61,0,126.59837910020724,,126.57186979986727,5,126.59837910020724,126.59837910020724,0.012677500024437904,128.82009130017832,[0.4666666666666667],[-0.08666666666666667],[1],[0],[0],[2.235744500067085],['target'],140787,001,2024-10-10_18h53.20.830,visualsearch,2024.1.5,None,2024-10-10 18h53.28.115630 +0530,
62,0,62,0,128.8653910998255,,128.82290189992636,10,128.8653910998255,128.8653910998255,0.027544300071895123,131.10281410021707,[-0.46166666666666667],[0.21833333333333332],[1],[0],[0],[2.25268549984321],['target'],140787,001,2024-10-10_18h53.20.830,visualsearch,2024.1.5,None,2024-10-10 18h53.28.115630 +0530,
63,0,63,0,131.13075899984688,,131.10552009986714,5,131.13075899984688,131.13075899984688,0.014157600235193968,132.68675650004297,[-0.095],[0.395],[1],[0],[0],[1.5672917999327183],['target'],140787,001,2024-10-10_18h53.20.830,visualsearch,2024.1.5,None,2024-10-10 18h53.28.115630 +0530,
64,0,64,0,132.7310258001089,,132.6895322999917,5,132.7310258001089,132.7310258001089,0.016927899792790413,135.00012180022895,[-0.36666666666666664],[-0.37166666666666665],[1],[0],[0],[2.293869800399989],['target'],140787,001,2024-10-10_18h53.20.830,visualsearch,2024.1.5,None,2024-10-10 18h53.28.115630 +0530,
65,0,65,0,135.02847609994933,,135.00315000023693,5,135.02847609994933,135.02847609994933,0.013817899860441685,136.66614310024306,[-0.43166666666666664],[-0.20333333333333334],[1],[0],[0],[1.6493493998423219],['target'],140787,001,2024-10-10_18h53.20.830,visualsearch,2024.1.5,None,2024-10-10 18h53.28.115630 +0530,
66,0,66,0,136.7109449999407,,136.67206950020045,5,136.7109449999407,136.7109449999407,0.01505909999832511,137.96583190001547,[-0.40166666666666667],[-0.27166666666666667],[1],[0],[0],[1.2796101998537779],['target'],140787,001,2024-10-10_18h53.20.830,visualsearch,2024.1.5,None,2024-10-10 18h53.28.115630 +0530,
67,0,67,0,138.010483100079,,137.96991360001266,10,138.010483100079,138.010483100079,0.027489000000059605,139.54609260009602,[-0.075],[0.155],[1],[0],[0],[1.549085899721831],['target'],140787,001,2024-10-10_18h53.20.830,visualsearch,2024.1.5,None,2024-10-10 18h53.28.115630 +0530,
68,0,68,0,139.59330420009792,,139.54878329997882,10,139.59330420009792,139.59330420009792,0.029944199603050947,141.09688730025664,[-0.4666666666666667],[0.32166666666666666],[1],[0],[0],[1.5183742996305227],['target'],140787,001,2024-10-10_18h53.20.830,visualsearch,2024.1.5,None,2024-10-10 18h53.28.115630 +0530,
69,0,69,0,141.14201339986175,,141.09955869987607,10,141.14201339986175,141.14201339986175,0.025530400220304728,143.02934319991618,[0.0016666666666666668],[0.44],[1],[0],[0],[1.904486000072211],['target'],140787,001,2024-10-10_18h53.20.830,visualsearch,2024.1.5,None,2024-10-10 18h53.28.115630 +0530,
70,0,70,0,143.0907538998872,,143.03353030001745,10,143.0907538998872,143.0907538998872,0.028847400099039078,145.1610655002296,[0.22333333333333333],[-0.06],[1],[0],[0],[2.099162200000137],['target'],140787,001,2024-10-10_18h53.20.830,visualsearch,2024.1.5,None,2024-10-10 18h53.28.115630 +0530,
71,0,71,0,145.2229494000785,,145.1644717999734,10,145.2229494000785,145.2229494000785,0.036076999735087156,146.66059700027108,[0.3233333333333333],[0.065],[1],[0],[0],[1.4609413999132812],['target'],140787,001,2024-10-10_18h53.20.830,visualsearch,2024.1.5,None,2024-10-10 18h53.28.115630 +0530,
72,0,72,0,146.6892527998425,,146.66345670027658,5,146.6892527998425,146.6892527998425,0.013254800345748663,148.14407919999212,[0.041666666666666664],[-0.041666666666666664],[1],[0],[0],[1.4676653002388775],['target'],140787,001,2024-10-10_18h53.20.830,visualsearch,2024.1.5,None,2024-10-10 18h53.28.115630 +0530,
73,0,73,0,148.2036528000608,,148.14849259983748,10,148.2036528000608,148.2036528000608,0.031059700064361095,150.043018899858,[0.37833333333333335],[-0.2833333333333333],[1],[0],[0],[1.8640478001907468],['target'],140787,001,2024-10-10_18h53.20.830,visualsearch,2024.1.5,None,2024-10-10 18h53.28.115630 +0530,
74,0,74,0,150.08726599998772,,150.04582410026342,5,150.08726599998772,150.08726599998772,0.01358299981802702,152.2922899001278,[0.05333333333333334],[0.16333333333333333],[1],[0],[0],[2.233095800038427],['target'],140787,001,2024-10-10_18h53.20.830,visualsearch,2024.1.5,None,2024-10-10 18h53.28.115630 +0530,
75,0,75,0,152.32027480006218,,152.29487060010433,5,152.32027480006218,152.32027480006218,0.013850400224328041,154.97491150023416,[0.13],[-0.315],[1],[0],[0],[2.6663361000828445],['target'],140787,001,2024-10-10_18h53.20.830,visualsearch,2024.1.5,None,2024-10-10 18h53.28.115630 +0530,
76,0,76,0,155.018132600002,,154.97774200001732,10,155.018132600002,155.018132600002,0.028659299947321415,157.42277600010857,[0.29333333333333333],[-0.2783333333333333],[1],[0],[0],[2.416689499747008],['target'],140787,001,2024-10-10_18h53.20.830,visualsearch,2024.1.5,None,2024-10-10 18h53.28.115630 +0530,
77,0,77,0,157.45116289984435,,157.42544869985431,5,157.45116289984435,157.45116289984435,0.014538099989295006,158.15569930011407,[0.29333333333333333],[-0.2783333333333333],[1],[0],[0],[0.715903399977833],['target'],140787,001,2024-10-10_18h53.20.830,visualsearch,2024.1.5,None,2024-10-10 18h53.28.115630 +0530,
78,0,78,0,158.19972509983927,,158.16002180008218,5,158.19972509983927,158.19972509983927,0.014466300141066313,159.8543123002164,[0.16833333333333333],[-0.06333333333333334],[1],[0],[0],[1.6802572002634406],['target'],140787,001,2024-10-10_18h53.20.830,visualsearch,2024.1.5,None,2024-10-10 18h53.28.115630 +0530,
79,0,79,0,159.8826619000174,,159.85698720021173,5,159.8826619000174,159.8826619000174,0.012900699861347675,161.4381865002215,[0.48],[-0.028333333333333332],[1],[0],[0],[1.568550799973309],['target'],140787,001,2024-10-10_18h53.20.830,visualsearch,2024.1.5,None,2024-10-10 18h53.28.115630 +0530,
80,0,80,0,161.49845740012825,,161.44084439985454,10,161.49845740012825,161.49845740012825,0.03142789984121919,163.0852375002578,[0.15166666666666667],[0.056666666666666664],[1],[0],[0],[1.6131192003376782],['target'],140787,001,2024-10-10_18h53.20.830,visualsearch,2024.1.5,None,2024-10-10 18h53.28.115630 +0530,
81,0,81,0,163.13089059991762,,163.08788429992273,10,163.13089059991762,163.13089059991762,0.026125499978661537,164.88563829986379,[0.0033333333333333335],[-0.08],[1],[0],[0],[1.7718627001158893],['target'],140787,001,2024-10-10_18h53.20.830,visualsearch,2024.1.5,None,2024-10-10 18h53.28.115630 +0530,
82,0,82,0,164.94575869990513,,164.88923570001498,10,164.94575869990513,164.94575869990513,0.03185589984059334,166.96657129982486,[-0.145],[-0.26],[1],[0],[0],[2.0462539000436664],['target'],140787,001,2024-10-10_18h53.20.830,visualsearch,2024.1.5,None,2024-10-10 18h53.28.115630 +0530,
83,0,83,0,167.02811100007966,,166.97057860018685,10,167.02811100007966,167.02811100007966,0.03001350024715066,169.06674889987335,[0.41333333333333333],[0.09666666666666666],[1],[0],[0],[2.0664122998714447],['target'],140787,001,2024-10-10_18h53.20.830,visualsearch,2024.1.5,None,2024-10-10 18h53.28.115630 +0530,
84,0,84,0,169.110947499983,,169.06956540001556,10,169.110947499983,169.110947499983,0.025189199950546026,170.8650417998433,[0.31333333333333335],[0.38666666666666666],[1],[0],[0],[1.7704618000425398],['target'],140787,001,2024-10-10_18h53.20.830,visualsearch,2024.1.5,None,2024-10-10 18h53.28.115630 +0530,
85,0,85,0,170.90981240011752,,170.8677147999406,5,170.90981240011752,170.90981240011752,0.016001599840819836,172.9133446002379,[0.20333333333333334],[0.175],[1],[0],[0],[2.0298327999189496],['target'],140787,001,2024-10-10_18h53.20.830,visualsearch,2024.1.5,None,2024-10-10 18h53.28.115630 +0530,
86,0,86,0,172.95891029993072,,172.91601110016927,5,172.95891029993072,172.95891029993072,0.015676700044423342,175.614717700053,[0.385],[-0.21],[1],[0],[0],[2.683276900090277],['target'],140787,001,2024-10-10_18h53.20.830,visualsearch,2024.1.5,None,2024-10-10 18h53.28.115630 +0530,
87,0,87,0,175.6576868002303,,175.6186585999094,5,175.6576868002303,175.6576868002303,0.014291999861598015,179.49455290008336,[-0.33],[0.17833333333333334],[1],[0],[0],[3.8622154002077878],['target'],140787,001,2024-10-10_18h53.20.830,visualsearch,2024.1.5,None,2024-10-10 18h53.28.115630 +0530,
88,0,88,0,179.52195589989424,,179.49758620001376,5,179.52195589989424,179.52195589989424,0.014704899862408638,181.96054330002517,[0.15333333333333332],[0.2633333333333333],[1],[0],[0],[2.4486759998835623],['target'],140787,001,2024-10-10_18h53.20.830,visualsearch,2024.1.5,None,2024-10-10 18h53.28.115630 +0530,
89,0,89,0,182.00394580001011,,181.96395209990442,5,182.00394580001011,182.00394580001011,0.0165328998118639,184.94281599996611,[0.435],[-0.255],[1],[0],[0],[2.9625499001704156],['target'],140787,001,2024-10-10_18h53.20.830,visualsearch,2024.1.5,None,2024-10-10 18h53.28.115630 +0530,
90,0,90,0,184.98617319995537,,184.94617839995772,5,184.98617319995537,184.98617319995537,0.016856300178915262,186.89038009988144,[-0.38],[-0.17166666666666666],[1],[0],[0],[1.9276312999427319],['target'],140787,001,2024-10-10_18h53.20.830,visualsearch,2024.1.5,None,2024-10-10 18h53.28.115630 +0530,
91,0,91,0,186.9182694000192,,186.8930071000941,5,186.9182694000192,186.9182694000192,0.013091300148516893,188.30668140016496,[-0.15833333333333333],[-0.325],[1],[0],[0],[1.400821799878031],['target'],140787,001,2024-10-10_18h53.20.830,visualsearch,2024.1.5,None,2024-10-10 18h53.28.115630 +0530,
92,0,92,0,188.351070899982,,188.30950429989025,5,188.351070899982,188.351070899982,0.016370299737900496,190.75625040009618,[0.4166666666666667],[-0.17333333333333334],[1],[0],[0],[2.4305512998253107],['target'],140787,001,2024-10-10_18h53.20.830,visualsearch,2024.1.5,None,2024-10-10 18h53.28.115630 +0530,
93,0,93,0,190.81645649997517,,190.75899600004777,10,190.81645649997517,190.81645649997517,0.027997999917715788,192.26973049994558,[0.165],[-0.30333333333333334],[1],[0],[0],[1.4829898998141289],['target'],140787,001,2024-10-10_18h53.20.830,visualsearch,2024.1.5,None,2024-10-10 18h53.28.115630 +0530,
94,0,94,0,192.29851080011576,,192.27237350028008,5,192.29851080011576,192.29851080011576,0.0166615997441113,195.08622279996052,[-0.41333333333333333],[0.37666666666666665],[1],[0],[0],[2.7973895999602973],['target'],140787,001,2024-10-10_18h53.20.830,visualsearch,2024.1.5,None,2024-10-10 18h53.28.115630 +0530,
95,0,95,0,195.1137161999941,,195.08890239987522,5,195.1137161999941,195.1137161999941,0.013153600040823221,197.43664610013366,[0.47333333333333333],[-0.10333333333333333],[1],[0],[0],[2.334845299832523],['target'],140787,001,2024-10-10_18h53.20.830,visualsearch,2024.1.5,None,2024-10-10 18h53.28.115630 +0530,
96,0,96,0,197.49465360026807,,197.4400423001498,10,197.49465360026807,197.49465360026807,0.0333250998519361,200.1323668002151,[0.14166666666666666],[0.15],[1],[0],[0],[2.6594799999147654],['target'],140787,001,2024-10-10_18h53.20.830,visualsearch,2024.1.5,None,2024-10-10 18h53.28.115630 +0530,
97,0,97,0,200.17771540023386,,200.1366813001223,5,200.17771540023386,200.17771540023386,0.017134600318968296,203.2829745998606,[0.25333333333333335],[0.041666666666666664],[1],[0],[0],[3.1298933001235127],['target'],140787,001,2024-10-10_18h53.20.830,visualsearch,2024.1.5,None,2024-10-10 18h53.28.115630 +0530,
98,0,98,0,203.34241299983114,,203.28802860016003,10,203.34241299983114,203.34241299983114,0.03538919985294342,206.2949659000151,[-0.09666666666666666],[-0.05],[1],[0],[0],[2.9722982002422214],['target'],140787,001,2024-10-10_18h53.20.830,visualsearch,2024.1.5,None,2024-10-10 18h53.28.115630 +0530,
99,0,99,0,206.34161180024967,,206.2989777000621,5,206.34161180024967,206.34161180024967,0.01745960023254156,208.48038670001552,[0.02666666666666667],[-0.43],[1],[0],[0],[2.1644580997526646],['target'],140787,001,2024-10-10_18h53.20.830,visualsearch,2024.1.5,None,2024-10-10 18h53.28.115630 +0530,
100,0,100,0,208.52331830002367,,208.4843787001446,5,208.52331830002367,208.52331830002367,0.01709780003875494,210.8119772002101,[-0.29],[0.11166666666666666],[1],[0],[0],[2.311077299993485],['target'],140787,001,2024-10-10_18h53.20.830,visualsearch,2024.1.5,None,2024-10-10 18h53.28.115630 +0530,
101,0,101,0,210.87209489988163,,210.81464629992843,10,210.87209489988163,210.87209489988163,0.03085559979081154,213.12719119992107,[0.25666666666666665],[0.375],[1],[0],[0],[2.2819344997406006],['target'],140787,001,2024-10-10_18h53.20.830,visualsearch,2024.1.5,None,2024-10-10 18h53.28.115630 +0530,
102,0,102,0,213.15419920021668,,213.12983680004254,5,213.15419920021668,213.15419920021668,0.013641499914228916,215.4273510002531,[-0.36833333333333335],[-0.13666666666666666],[1],[0],[0],[2.284049999900162],['target'],140787,001,2024-10-10_18h53.20.830,visualsearch,2024.1.5,None,2024-10-10 18h53.28.115630 +0530,
103,0,103,0,215.487221499905,,215.43140190001577,10,215.487221499905,215.487221499905,0.02951599983498454,219.23986710002646,[0.36333333333333334],[0.42],[1],[0],[0],[3.7795536001212895],['target'],140787,001,2024-10-10_18h53.20.830,visualsearch,2024.1.5,None,2024-10-10 18h53.28.115630 +0530,
104,0,104,0,219.2677290001884,,219.24267770024016,5,219.2677290001884,219.2677290001884,0.013618000317364931,221.0570940002799,[0.03666666666666667],[-0.12666666666666668],[1],[0],[0],[1.801040600053966],['target'],140787,001,2024-10-10_18h53.20.830,visualsearch,2024.1.5,None,2024-10-10 18h53.28.115630 +0530,
105,0,105,0,221.11642310023308,,221.05976410023868,10,221.11642310023308,221.11642310023308,0.029296899680048227,223.5022577000782,[-0.2866666666666667],[-0.17333333333333334],[1],[0],[0],[2.4134182003326714],['target'],140787,001,2024-10-10_18h53.20.830,visualsearch,2024.1.5,None,2024-10-10 18h53.28.115630 +0530,
106,0,106,0,223.56591789983213,,223.50664790021256,10,223.56591789983213,223.56591789983213,0.033066199626773596,225.70285540027544,[0.24833333333333332],[0.36],[1],[0],[0],[2.163732400164008],['target'],140787,001,2024-10-10_18h53.20.830,visualsearch,2024.1.5,None,2024-10-10 18h53.28.115630 +0530,
107,0,107,0,225.74776630010456,,225.7069121999666,10,225.74776630010456,225.74776630010456,0.028855900280177593,228.13513950025663,[-0.051666666666666666],[-0.23166666666666666],[1],[0],[0],[2.399809100199491],['target'],140787,001,2024-10-10_18h53.20.830,visualsearch,2024.1.5,None,2024-10-10 18h53.28.115630 +0530,
108,0,108,0,228.19609360024333,,228.13783159991726,10,228.19609360024333,228.19609360024333,0.029917200095951557,230.4688470000401,[0.43],[-0.3516666666666667],[1],[0],[0],[2.301298900041729],['target'],140787,001,2024-10-10_18h53.20.830,visualsearch,2024.1.5,None,2024-10-10 18h53.28.115630 +0530,
109,0,109,0,230.52833070000634,,230.4731304999441,10,230.52833070000634,230.52833070000634,0.0332673997618258,233.69759869994596,[-0.075],[0.13666666666666666],[1],[0],[0],[3.191899100318551],['target'],140787,001,2024-10-10_18h53.20.830,visualsearch,2024.1.5,None,2024-10-10 18h53.28.115630 +0530,
110,0,110,0,233.76074100006372,,233.70081049995497,10,233.76074100006372,233.76074100006372,0.030949299689382315,235.73055610014126,[-0.021666666666666667],[-0.285],[1],[0],[0],[1.9990978999994695],['target'],140787,001,2024-10-10_18h53.20.830,visualsearch,2024.1.5,None,2024-10-10 18h53.28.115630 +0530,
111,0,111,0,235.7595526999794,,235.7335319002159,5,235.7595526999794,235.7595526999794,0.013365199789404869,238.84670840017498,[0.27],[0.36],[1],[0],[0],[3.099971099756658],['target'],140787,001,2024-10-10_18h53.20.830,visualsearch,2024.1.5,None,2024-10-10 18h53.28.115630 +0530,
112,0,112,0,238.89219930022955,,238.85088870022446,5,238.89219930022955,238.89219930022955,0.017201699782162905,240.2792147002183,[0.14333333333333334],[0.3616666666666667],[1],[0],[0],[1.411734700202942],['target'],140787,001,2024-10-10_18h53.20.830,visualsearch,2024.1.5,None,2024-10-10 18h53.28.115630 +0530,
113,0,113,0,240.33952260017395,,240.28230210021138,10,240.33952260017395,240.33952260017395,0.03589969966560602,242.6262085000053,[-0.008333333333333333],[-0.33166666666666667],[1],[0],[0],[2.3084136000834405],['target'],140787,001,2024-10-10_18h53.20.830,visualsearch,2024.1.5,None,2024-10-10 18h53.28.115630 +0530,
114,0,114,0,242.6707079000771,,242.62889510020614,10,242.6707079000771,242.6707079000771,0.028259099926799536,245.12443490000442,[0.45666666666666667],[0.45166666666666666],[1],[0],[0],[2.467516800388694],['target'],140787,001,2024-10-10_18h53.20.830,visualsearch,2024.1.5,None,2024-10-10 18h53.28.115630 +0530,
115,0,115,0,245.1694134999998,,245.12880680011585,10,245.1694134999998,245.1694134999998,0.029905700124800205,246.89090709993616,[0.08666666666666667],[0.445],[1],[0],[0],[1.7324890000745654],['target'],140787,001,2024-10-10_18h53.20.830,visualsearch,2024.1.5,None,2024-10-10 18h53.28.115630 +0530,
116,0,116,0,246.93522199988365,,246.89537040004507,10,246.93522199988365,246.93522199988365,0.028507200069725513,249.08839529985562,[-0.21833333333333332],[0.25166666666666665],[1],[0],[0],[2.1650831000879407],['target'],140787,001,2024-10-10_18h53.20.830,visualsearch,2024.1.5,None,2024-10-10 18h53.28.115630 +0530,
117,0,117,0,249.1344244000502,,249.09119610022753,10,249.1344244000502,249.1344244000502,0.027457999996840954,251.08677780022845,[-0.195],[-0.006666666666666667],[1],[0],[0],[1.9683298002928495],['target'],140787,001,2024-10-10_18h53.20.830,visualsearch,2024.1.5,None,2024-10-10 18h53.28.115630 +0530,
118,0,118,0,251.1327975001186,,251.08938959985971,10,251.1327975001186,251.1327975001186,0.02298360038548708,252.68777009984478,[0.041666666666666664],[-0.02666666666666667],[1],[0],[0],[1.5755578000098467],['target'],140787,001,2024-10-10_18h53.20.830,visualsearch,2024.1.5,None,2024-10-10 18h53.28.115630 +0530,
119,0,119,0,252.71627460001037,,252.69046569988132,5,252.71627460001037,252.71627460001037,0.012492999900132418,254.91948419995606,[0.3616666666666667],[0.205],[1],[0],[0],[2.2167638996616006],['target'],140787,001,2024-10-10_18h53.20.830,visualsearch,2024.1.5,None,2024-10-10 18h53.28.115630 +0530,
120,0,120,0,254.98158519994467,,254.92410170007497,10,254.98158519994467,254.98158519994467,0.029279799666255713,257.0174243999645,[0.26],[-0.23833333333333334],[1],[0],[0],[2.0647309003397822],['target'],140787,001,2024-10-10_18h53.20.830,visualsearch,2024.1.5,None,2024-10-10 18h53.28.115630 +0530,
121,0,121,0,257.04666700027883,,257.0200364999473,5,257.04666700027883,257.04666700027883,0.012274399865418673,258.76740400027484,[0.20666666666666667],[-0.26166666666666666],[1],[0],[0],[1.7353039998561144],['target'],140787,001,2024-10-10_18h53.20.830,visualsearch,2024.1.5,None,2024-10-10 18h53.28.115630 +0530,
122,0,122,0,258.81250400003046,,258.7701314999722,10,258.81250400003046,258.81250400003046,0.025797199923545122,259.01650999998674,[0.20666666666666667],[-0.26166666666666666],[1],[0],[0],[0.220830500125885],[],140787,001,2024-10-10_18h53.20.830,visualsearch,2024.1.5,None,2024-10-10 18h53.28.115630 +0530,
123,0,123,0,259.0623234002851,,259.0209667002782,10,259.0623234002851,259.0623234002851,0.0286765000782907,262.93148790020496,[-0.11333333333333333],[0.30666666666666664],[1],[0],[0],[3.882442200090736],['target'],140787,001,2024-10-10_18h53.20.830,visualsearch,2024.1.5,None,2024-10-10 18h53.28.115630 +0530,
124,0,124,0,262.97698559984565,,262.9342923001386,10,262.97698559984565,262.97698559984565,0.023750399705022573,264.59680930012837,[-0.45166666666666666],[0.415],[1],[0],[0],[1.6389458002522588],['target'],140787,001,2024-10-10_18h53.20.830,visualsearch,2024.1.5,None,2024-10-10 18h53.28.115630 +0530,
125,0,125,0,264.6429471001029,,264.59948460012674,10,264.6429471001029,264.6429471001029,0.023753300309181213,268.3617830001749,[0.4866666666666667],[0.3333333333333333],[1],[0],[0],[3.7387880999594927],['target'],140787,001,2024-10-10_18h53.20.830,visualsearch,2024.1.5,None,2024-10-10 18h53.28.115630 +0530,
126,0,126,0,268.4074710002169,,268.364429499954,10,268.4074710002169,268.4074710002169,0.024458300322294235,269.79524850007147,[-0.04],[0.27166666666666667],[1],[0],[0],[1.4066262999549508],['target'],140787,001,2024-10-10_18h53.20.830,visualsearch,2024.1.5,None,2024-10-10 18h53.28.115630 +0530,
127,0,127,0,269.8233099002391,,269.79787980020046,5,269.8233099002391,269.8233099002391,0.013043300248682499,273.2772086998448,[-0.055],[0.1],[1],[0],[0],[3.46648019971326],['target'],140787,001,2024-10-10_18h53.20.830,visualsearch,2024.1.5,None,2024-10-10 18h53.28.115630 +0530,
128,0,128,0,273.3050301000476,,273.28192130010575,5,273.3050301000476,273.3050301000476,0.014659000094980001,275.62501219986007,[-0.09833333333333333],[-0.41333333333333333],[1],[0],[0],[2.3290777998045087],['target'],140787,001,2024-10-10_18h53.20.830,visualsearch,2024.1.5,None,2024-10-10 18h53.28.115630 +0530,
129,0,129,0,275.65394819993526,,275.62789659993723,5,275.65394819993526,275.65394819993526,0.015953900292515755,277.75738270021975,[0.2633333333333333],[0.15333333333333332],[1],[0],[0],[2.113944699987769],['target'],140787,001,2024-10-10_18h53.20.830,visualsearch,2024.1.5,None,2024-10-10 18h53.28.115630 +0530,
130,0,130,0,277.7858067001216,,277.7600317001343,5,277.7858067001216,277.7858067001216,0.013741299975663424,281.2897681002505,[-0.4666666666666667],[-0.2816666666666667],[1],[0],[0],[3.5162400999106467],['target'],140787,001,2024-10-10_18h53.20.830,visualsearch,2024.1.5,None,2024-10-10 18h53.28.115630 +0530,
131,0,131,0,281.31736489990726,,281.2924397001043,5,281.31736489990726,281.31736489990726,0.014920999761670828,283.0042905998416,[0.06833333333333333],[0.23666666666666666],[1],[0],[0],[1.6971317999996245],['target'],140787,001,2024-10-10_18h53.20.830,visualsearch,2024.1.5,None,2024-10-10 18h53.28.115630 +0530,
132,0,132,0,283.0331279998645,,283.0071207000874,5,283.0331279998645,283.0331279998645,0.013607299886643887,284.77036820026115,[-0.17],[-0.17333333333333334],[1],[0],[0],[1.749915899708867],['target'],140787,001,2024-10-10_18h53.20.830,visualsearch,2024.1.5,None,2024-10-10 18h53.28.115630 +0530,
133,0,133,0,284.81537629989907,,284.77324420027435,10,284.81537629989907,284.81537629989907,0.02364919986575842,287.7352439002134,[0.08166666666666667],[-0.125],[1],[0],[0],[2.9386207000352442],['target'],140787,001,2024-10-10_18h53.20.830,visualsearch,2024.1.5,None,2024-10-10 18h53.28.115630 +0530,
134,0,134,0,287.76394149987027,,287.7379331002012,5,287.76394149987027,287.76394149987027,0.013669299893081188,289.9677401999943,[0.18666666666666668],[0.4],[1],[0],[0],[2.216353999916464],['target'],140787,001,2024-10-10_18h53.20.830,visualsearch,2024.1.5,None,2024-10-10 18h53.28.115630 +0530,
135,0,135,0,290.0127254999243,,289.9721355000511,10,290.0127254999243,290.0127254999243,0.027850300073623657,292.08149000024423,[-0.46],[-0.45166666666666666],[1],[0],[0],[2.082123499829322],['target'],140787,001,2024-10-10_18h53.20.830,visualsearch,2024.1.5,None,2024-10-10 18h53.28.115630 +0530,
136,0,136,0,292.11174499988556,,292.0841907998547,5,292.11174499988556,292.11174499988556,0.013472000136971474,294.2648263000883,[0.4083333333333333],[0.20166666666666666],[1],[0],[0],[2.1674462002702057],['target'],140787,001,2024-10-10_18h53.20.830,visualsearch,2024.1.5,None,2024-10-10 18h53.28.115630 +0530,
137,0,137,0,294.3267145999707,,294.2692313999869,10,294.3267145999707,294.3267145999707,0.031129799783229828,296.9811595999636,[-0.40166666666666667],[-0.10333333333333333],[1],[0],[0],[2.6814516996964812],['target'],140787,001,2024-10-10_18h53.20.830,visualsearch,2024.1.5,None,2024-10-10 18h53.28.115630 +0530,
138,0,138,0,297.00900069996715,,296.9839729000814,5,297.00900069996715,297.00900069996715,0.013170700054615736,298.19650229997933,[-0.4216666666666667],[-0.08333333333333333],[1],[0],[0],[1.1996124000288546],['target'],140787,001,2024-10-10_18h53.20.830,visualsearch,2024.1.5,None,2024-10-10 18h53.28.115630 +0530,
139,0,139,0,298.2416594000533,,298.19918979983777,10,298.2416594000533,298.2416594000533,0.023021100088953972,418.20046199997887,[-0.15833333333333333],[0.4266666666666667],[1],[0],[0],[119.97831350006163],['target'],140787,001,2024-10-10_18h53.20.830,visualsearch,2024.1.5,None,2024-10-10 18h53.28.115630 +0530,
140,0,140,0,418.24529360001907,,418.20322010014206,10,418.24529360001907,418.24529360001907,0.02829370042309165,420.3659291998483,[-0.23166666666666666],[-0.18166666666666667],[1],[0],[0],[2.134567900095135],['target'],140787,001,2024-10-10_18h53.20.830,visualsearch,2024.1.5,None,2024-10-10 18h53.28.115630 +0530,
141,0,141,0,420.3942104000598,,420.37036339985207,5,420.3942104000598,420.3942104000598,0.015023500192910433,421.7816081000492,[0.40166666666666667],[0.275],[1],[0],[0],[1.3968581999652088],['target'],140787,001,2024-10-10_18h53.20.830,visualsearch,2024.1.5,None,2024-10-10 18h53.28.115630 +0530,
142,0,142,0,421.82701339991763,,421.7843713001348,10,421.82701339991763,421.82701339991763,0.02325219986960292,423.1138637000695,[-0.14833333333333334],[-0.16166666666666665],[1],[0],[0],[1.3064584000967443],['target'],140787,001,2024-10-10_18h53.20.830,visualsearch,2024.1.5,None,2024-10-10 18h53.28.115630 +0530,
143,0,143,0,423.1595717999153,,423.116887900047,10,423.1595717999153,423.1595717999153,0.02335940022021532,423.947538100183,[-0.14166666666666666],[-0.21166666666666667],[1],[0],[0],[0.8075293996371329],['target'],140787,001,2024-10-10_18h53.20.830,visualsearch,2024.1.5,None,2024-10-10 18h53.28.115630 +0530,
144,0,144,0,423.9922525999136,,423.9502757000737,10,423.9922525999136,423.9922525999136,0.02451429981738329,425.2808007001877,[-0.4266666666666667],[-0.405],[1],[0],[0],[1.306251300033182],['target'],140787,001,2024-10-10_18h53.20.830,visualsearch,2024.1.5,None,2024-10-10 18h53.28.115630 +0530,
145,0,145,0,425.3084712000564,,425.28364389995113,5,425.3084712000564,425.3084712000564,0.013382700271904469,426.68042990006506,[-0.055],[-0.17],[1],[0],[0],[1.3838102999143302],['target'],140787,001,2024-10-10_18h53.20.830,visualsearch,2024.1.5,None,2024-10-10 18h53.28.115630 +0530,
146,0,146,0,426.7244596001692,,426.6848359000869,5,426.7244596001692,426.7244596001692,0.015769900288432837,427.84500209987164,[0.3566666666666667],[0.10166666666666667],[1],[0],[0],[1.145002099685371],['target'],140787,001,2024-10-10_18h53.20.830,visualsearch,2024.1.5,None,2024-10-10 18h53.28.115630 +0530,
147,0,147,0,427.87371380021796,,427.8478509001434,5,427.87371380021796,427.87371380021796,0.013036900199949741,428.7947750999592,[0.43333333333333335],[0.06166666666666667],[1],[0],[0],[0.934203699696809],['target'],140787,001,2024-10-10_18h53.20.830,visualsearch,2024.1.5,None,2024-10-10 18h53.28.115630 +0530,
148,0,148,0,428.85637280019,,428.7987154000439,10,428.85637280019,428.85637280019,0.029431999661028385,430.14406129997224,[0.37166666666666665],[0.14833333333333334],[1],[0],[0],[1.3165657999925315],['target'],140787,001,2024-10-10_18h53.20.830,visualsearch,2024.1.5,None,2024-10-10 18h53.28.115630 +0530,
149,0,149,0,430.17232610005885,,430.14666430000216,5,430.17232610005885,430.17232610005885,0.012505600228905678,432.1436001001857,[-0.035],[-0.065],[1],[0],[0],[1.9845110001042485],['target'],140787,001,2024-10-10_18h53.20.830,visualsearch,2024.1.5,None,2024-10-10 18h53.28.115630 +0530,
150,0,150,0,432.1713938000612,,432.14636170025915,5,432.1713938000612,432.1713938000612,0.015571200288832188,433.64214299991727,[-0.355],[0.4066666666666667],[1],[0],[0],[1.480485999956727],['target'],140787,001,2024-10-10_18h53.20.830,visualsearch,2024.1.5,None,2024-10-10 18h53.28.115630 +0530,
151,0,151,0,433.68731949990615,,433.64530109986663,10,433.68731949990615,433.68731949990615,0.02547960029914975,435.94127860013396,[-0.3466666666666667],[-0.4116666666666667],[1],[0],[0],[2.270719700027257],['target'],140787,001,2024-10-10_18h53.20.830,visualsearch,2024.1.5,None,2024-10-10 18h53.28.115630 +0530,
152,0,152,0,435.96954389987513,,435.94402990024537,5,435.96954389987513,435.96954389987513,0.012929100077599287,437.02378020016477,[0.405],[0.255],[1],[0],[0],[1.0671147000975907],['target'],140787,001,2024-10-10_18h53.20.830,visualsearch,2024.1.5,None,2024-10-10 18h53.28.115630 +0530,
153,0,153,0,437.06897919997573,,437.0266225999221,10,437.06897919997573,437.06897919997573,0.024031300097703934,438.339777499903,[-0.435],[0.19833333333333333],[1],[0],[0],[1.2893759002909064],['target'],140787,001,2024-10-10_18h53.20.830,visualsearch,2024.1.5,None,2024-10-10 18h53.28.115630 +0530,
154,0,154,0,438.3849832001142,,438.3425813000649,10,438.3849832001142,438.3849832001142,0.02714890008792281,440.10641120001674,[-0.155],[-0.31833333333333336],[1],[0],[0],[1.736867600120604],['target'],140787,001,2024-10-10_18h53.20.830,visualsearch,2024.1.5,None,2024-10-10 18h53.28.115630 +0530,
155,0,155,0,440.1340371002443,,440.1110125002451,5,440.1340371002443,440.1340371002443,0.014933300204575062,441.87182700028643,[0.29],[0.18166666666666667],[1],[0],[0],[1.7463823999278247],['target'],140787,001,2024-10-10_18h53.20.830,visualsearch,2024.1.5,None,2024-10-10 18h53.28.115630 +0530,
156,0,156,0,441.89986009988934,,441.8744912999682,5,441.89986009988934,441.89986009988934,0.012372500263154507,443.03729239990935,[-0.20333333333333334],[-0.06333333333333334],[1],[0],[0],[1.1506833997555077],['target'],140787,001,2024-10-10_18h53.20.830,visualsearch,2024.1.5,None,2024-10-10 18h53.28.115630 +0530,
157,0,157,0,443.0825016000308,,443.0400396999903,10,443.0825016000308,443.0825016000308,0.027082299813628197,444.2019185000099,[-0.41833333333333333],[0.01],[1],[0],[0],[1.135014799889177],['target'],140787,001,2024-10-10_18h53.20.830,visualsearch,2024.1.5,None,2024-10-10 18h53.28.115630 +0530,
158,0,158,0,444.2316184001975,,444.2052215002477,5,444.2316184001975,444.2316184001975,0.01442919997498393,445.35336960013956,[-0.175],[-0.10666666666666667],[1],[0],[0],[1.1340868999250233],['target'],140787,001,2024-10-10_18h53.20.830,visualsearch,2024.1.5,None,2024-10-10 18h53.28.115630 +0530,
159,0,159,0,445.38120550010353,,445.357014299836,5,445.38120550010353,445.38120550010353,0.012732199858874083,446.35294059989974,[0.48833333333333334],[0.31166666666666665],[1],[0],[0],[0.9834410999901593],['target'],140787,001,2024-10-10_18h53.20.830,visualsearch,2024.1.5,None,2024-10-10 18h53.28.115630 +0530,
160,0,160,0,446.3971969000995,,446.3573671001941,5,446.3971969000995,446.3971969000995,0.016201000194996595,447.418506400194,[0.20833333333333334],[0.18333333333333332],[1],[0],[0],[1.0455946996808052],['target'],140787,001,2024-10-10_18h53.20.830,visualsearch,2024.1.5,None,2024-10-10 18h53.28.115630 +0530,
161,0,161,0,447.46362920012325,,447.4219009000808,10,447.46362920012325,447.46362920012325,0.022977200336754322,449.5678711999208,[-0.26],[-0.4116666666666667],[1],[0],[0],[2.1236804998479784],['target'],140787,001,2024-10-10_18h53.20.830,visualsearch,2024.1.5,None,2024-10-10 18h53.28.115630 +0530,
162,0,162,0,449.59589380025864,,449.5706158000976,5,449.59589380025864,449.59589380025864,0.013012100011110306,450.933277499862,[0.25333333333333335],[-0.30666666666666664],[1],[0],[0],[1.3498827000148594],['target'],140787,001,2024-10-10_18h53.20.830,visualsearch,2024.1.5,None,2024-10-10 18h53.28.115630 +0530,
163,0,163,0,450.9615766000934,,450.93621100019664,5,450.9615766000934,450.9615766000934,0.013811100274324417,452.91548100020736,[0.49166666666666664],[-0.465],[1],[0],[0],[1.9659028998576105],['target'],140787,001,2024-10-10_18h53.20.830,visualsearch,2024.1.5,None,2024-10-10 18h53.28.115630 +0530,
164,0,164,0,452.9437990998849,,452.91916610021144,5,452.9437990998849,452.9437990998849,0.015191900078207254,454.264417800121,[-0.14333333333333334],[-0.465],[1],[0],[0],[1.3303276998922229],['target'],140787,001,2024-10-10_18h53.20.830,visualsearch,2024.1.5,None,2024-10-10 18h53.28.115630 +0530,
165,0,165,0,454.31011389987543,,454.26715500000864,10,454.31011389987543,454.31011389987543,0.024986800272017717,455.49594169994816,[0.25166666666666665],[-0.31833333333333336],[1],[0],[0],[1.204059399664402],['target'],140787,001,2024-10-10_18h53.20.830,visualsearch,2024.1.5,None,2024-10-10 18h53.28.115630 +0530,
166,0,166,0,455.5259588002227,,455.49861450027674,5,455.5259588002227,455.5259588002227,0.01316870003938675,457.47965259989724,[-0.305],[0.023333333333333334],[1],[0],[0],[1.9680716004222631],['target'],140787,001,2024-10-10_18h53.20.830,visualsearch,2024.1.5,None,2024-10-10 18h53.28.115630 +0530,
167,0,167,0,457.5252056000754,,457.48247649986297,10,457.5252056000754,457.5252056000754,0.025192799977958202,458.828136399854,[0.24333333333333335],[0.12833333333333333],[1],[0],[0],[1.3207982000894845],['target'],140787,001,2024-10-10_18h53.20.830,visualsearch,2024.1.5,None,2024-10-10 18h53.28.115630 +0530,
168,0,168,0,458.8575643999502,,458.8323547998443,5,458.8575643999502,458.8575643999502,0.013919599819928408,459.84522360004485,[0.295],[0.335],[1],[0],[0],[0.9995710998773575],['target'],140787,001,2024-10-10_18h53.20.830,visualsearch,2024.1.5,None,2024-10-10 18h53.28.115630 +0530,
169,0,169,0,459.8738441001624,,459.84815749991685,5,459.8738441001624,459.8738441001624,0.012203100137412548,461.3945404002443,[0.14],[-0.43],[1],[0],[0],[1.5344324000179768],['target'],140787,001,2024-10-10_18h53.20.830,visualsearch,2024.1.5,None,2024-10-10 18h53.28.115630 +0530,
170,0,170,0,461.4228679998778,,461.3972562998533,5,461.4228679998778,461.4228679998778,0.014931699726730585,462.6119638001546,[-0.47333333333333333],[-0.065],[1],[0],[0],[1.2000100002624094],['target'],140787,001,2024-10-10_18h53.20.830,visualsearch,2024.1.5,None,2024-10-10 18h53.28.115630 +0530,
171,0,171,0,462.6554841999896,,462.61454900028184,10,462.6554841999896,462.6554841999896,0.02375839976593852,463.99316490022466,[0.21666666666666667],[0.35],[1],[0],[0],[1.3550692996941507],['target'],140787,001,2024-10-10_18h53.20.830,visualsearch,2024.1.5,None,2024-10-10 18h53.28.115630 +0530,
172,0,172,0,464.0380755001679,,463.9958612001501,10,464.0380755001679,464.0380755001679,0.025168299674987793,465.49221369996667,[-0.43833333333333335],[-0.005],[1],[0],[0],[1.4714405997656286],['target'],140787,001,2024-10-10_18h53.20.830,visualsearch,2024.1.5,None,2024-10-10 18h53.28.115630 +0530,
173,0,173,0,465.53752089990303,,465.49494510004297,10,465.53752089990303,465.53752089990303,0.02240559970960021,467.1246441998519,[-0.315],[0.03],[1],[0],[0],[1.607512699905783],['target'],140787,001,2024-10-10_18h53.20.830,visualsearch,2024.1.5,None,2024-10-10 18h53.28.115630 +0530,
174,0,174,0,467.15352010028437,,467.12775269988924,5,467.15352010028437,467.15352010028437,0.013410900253802538,468.65747940028086,[-0.14833333333333334],[-0.16],[1],[0],[0],[1.51694370014593],['target'],140787,001,2024-10-10_18h53.20.830,visualsearch,2024.1.5,None,2024-10-10 18h53.28.115630 +0530,
175,0,175,0,468.71887480001897,,468.6618901998736,10,468.71887480001897,468.71887480001897,0.028547300025820732,470.48860900010914,[0.11333333333333333],[-0.07],[1],[0],[0],[1.7987844999879599],['target'],140787,001,2024-10-10_18h53.20.830,visualsearch,2024.1.5,None,2024-10-10 18h53.28.115630 +0530,
176,0,176,0,470.5179197001271,,470.4912577001378,5,470.5179197001271,470.5179197001271,0.01229709992185235,472.00499100005254,[-0.39666666666666667],[0.055],[1],[0],[0],[1.5016653002239764],['target'],140787,001,2024-10-10_18h53.20.830,visualsearch,2024.1.5,None,2024-10-10 18h53.28.115630 +0530,
177,0,177,0,472.03443859983236,,472.0078660999425,5,472.03443859983236,472.03443859983236,0.012572999577969313,473.50458900025114,[0.14833333333333334],[0.43333333333333335],[1],[0],[0],[1.484398600179702],['target'],140787,001,2024-10-10_18h53.20.830,visualsearch,2024.1.5,None,2024-10-10 18h53.28.115630 +0530,
178,0,178,0,473.5496982000768,,473.5074016000144,10,473.5496982000768,473.5496982000768,0.02327900007367134,474.8371290001087,[-0.45666666666666667],[0.12],[1],[0],[0],[1.3067037002183497],['target'],140787,001,2024-10-10_18h53.20.830,visualsearch,2024.1.5,None,2024-10-10 18h53.28.115630 +0530,
179,0,179,0,474.8658123998903,,474.83988399989903,5,474.8658123998903,474.8658123998903,0.012507300358265638,477.22132530016825,[0.4666666666666667],[0.07833333333333334],[1],[0],[0],[2.369135399814695],['target'],140787,001,2024-10-10_18h53.20.830,visualsearch,2024.1.5,None,2024-10-10 18h53.28.115630 +0530,
180,0,180,0,477.2644091001712,,477.22613159986213,5,477.2644091001712,477.2644091001712,0.01734710019081831,478.76790450001135,[0.37833333333333335],[-0.4266666666666667],[1],[0],[0],[1.5251539000310004],['target'],140787,001,2024-10-10_18h53.20.830,visualsearch,2024.1.5,None,2024-10-10 18h53.28.115630 +0530,
181,0,181,0,478.8136809002608,,478.7705141999759,10,478.8136809002608,478.8136809002608,0.026386700104922056,480.0039102002047,[0.25833333333333336],[-0.03166666666666667],[1],[0],[0],[1.2071926002390683],['target'],140787,001,2024-10-10_18h53.20.830,visualsearch,2024.1.5,None,2024-10-10 18h53.28.115630 +0530,
182,0,182,0,480.02982769999653,,480.0067182001658,5,480.02982769999653,480.02982769999653,0.015082699712365866,481.16749940020964,[0.11666666666666667],[0.205],[1],[0],[0],[1.1459806999191642],['target'],140787,001,2024-10-10_18h53.20.830,visualsearch,2024.1.5,None,2024-10-10 18h53.28.115630 +0530,
183,0,183,0,481.19552200008184,,481.170117800124,5,481.19552200008184,481.19552200008184,0.012342799920588732,482.7833748999983,[-0.245],[0.2816666666666667],[1],[0],[0],[1.6011622999794781],['target'],140787,001,2024-10-10_18h53.20.830,visualsearch,2024.1.5,None,2024-10-10 18h53.28.115630 +0530,
184,0,184,0,482.8283112999052,,482.78606430022046,10,482.8283112999052,482.8283112999052,0.022543500177562237,484.18245120020583,[0.31333333333333335],[0.27666666666666667],[1],[0],[0],[1.3740821001119912],['target'],140787,001,2024-10-10_18h53.20.830,visualsearch,2024.1.5,None,2024-10-10 18h53.28.115630 +0530,
185,0,185,0,484.2110080001876,,484.18512709997594,5,484.2110080001876,484.2110080001876,0.013237999752163887,485.5642253998667,[0.4633333333333333],[0.45],[1],[0],[0],[1.3661078996956348],['target'],140787,001,2024-10-10_18h53.20.830,visualsearch,2024.1.5,None,2024-10-10 18h53.28.115630 +0530,
186,0,186,0,485.59363939985633,,485.56867210008204,5,485.59363939985633,485.59363939985633,0.015814200043678284,487.0969098000787,[0.18666666666666668],[0.44],[1],[0],[0],[1.5130851999856532],['target'],140787,001,2024-10-10_18h53.20.830,visualsearch,2024.1.5,None,2024-10-10 18h53.28.115630 +0530,
187,0,187,0,487.1264508999884,,487.0995733998716,5,487.1264508999884,487.1264508999884,0.012524500023573637,488.4975234000012,[0.3933333333333333],[-0.255],[1],[0],[0],[1.3856967999599874],['target'],140787,001,2024-10-10_18h53.20.830,visualsearch,2024.1.5,None,2024-10-10 18h53.28.115630 +0530,
188,0,188,0,488.54198860004544,,488.50018119998276,10,488.54198860004544,488.54198860004544,0.026489300187677145,490.0791504001245,[-0.39],[0.41333333333333333],[1],[0],[0],[1.5526986001059413],['target'],140787,001,2024-10-10_18h53.20.830,visualsearch,2024.1.5,None,2024-10-10 18h53.28.115630 +0530,
189,0,189,0,490.12452880013734,,490.08186070015654,10,490.12452880013734,490.12452880013734,0.023434999864548445,491.9120020000264,[0.13166666666666665],[-0.3516666666666667],[1],[0],[0],[1.8069273000583053],['target'],140787,001,2024-10-10_18h53.20.830,visualsearch,2024.1.5,None,2024-10-10 18h53.28.115630 +0530,
190,0,190,0,491.9400088000111,,491.9147208998911,5,491.9400088000111,491.9400088000111,0.012070999946445227,493.1775853000581,[0.33666666666666667],[-0.3383333333333333],[1],[0],[0],[1.2510163998231292],['target'],140787,001,2024-10-10_18h53.20.830,visualsearch,2024.1.5,None,2024-10-10 18h53.28.115630 +0530,
191,0,191,0,493.2229070998728,,493.1803969000466,10,493.2229070998728,493.2229070998728,0.022611599881201982,494.44340200023726,[-0.14833333333333334],[-0.013333333333333334],[1],[0],[0],[1.240652599837631],['target'],140787,001,2024-10-10_18h53.20.830,visualsearch,2024.1.5,None,2024-10-10 18h53.28.115630 +0530,
192,0,192,0,494.47219560015947,,494.4460797002539,5,494.47219560015947,494.47219560015947,0.01237789960578084,496.0759992999956,[-0.16333333333333333],[-0.21333333333333335],[1],[0],[0],[1.6177485003136098],['target'],140787,001,2024-10-10_18h53.20.830,visualsearch,2024.1.5,None,2024-10-10 18h53.28.115630 +0530,
193,0,193,0,496.1048099999316,,496.07861830014735,5,496.1048099999316,496.1048099999316,0.01179909985512495,497.3257071999833,[0.05333333333333334],[-0.08],[1],[0],[0],[1.2355275000445545],['target'],140787,001,2024-10-10_18h53.20.830,visualsearch,2024.1.5,None,2024-10-10 18h53.28.115630 +0530,
194,0,194,0,497.37063630018383,,497.32994480011985,10,497.37063630018383,497.37063630018383,0.027691099792718887,498.55786400008947,[-0.05333333333333334],[0.285],[1],[0],[0],[1.2007812997326255],['target'],140787,001,2024-10-10_18h53.20.830,visualsearch,2024.1.5,None,2024-10-10 18h53.28.115630 +0530,
195,0,195,0,498.6036459999159,,498.560578300152,10,498.6036459999159,498.6036459999159,0.030080399941653013,499.7736549000256,[0.31166666666666665],[0.051666666666666666],[1],[0],[0],[1.1832572002895176],['target'],140787,001,2024-10-10_18h53.20.830,visualsearch,2024.1.5,None,2024-10-10 18h53.28.115630 +0530,
196,0,196,0,499.80265429988503,,499.7776116002351,5,499.80265429988503,499.80265429988503,0.01383400009945035,500.98957480024546,[0.20166666666666666],[0.2916666666666667],[1],[0],[0],[1.198350299615413],['target'],140787,001,2024-10-10_18h53.20.830,visualsearch,2024.1.5,None,2024-10-10 18h53.28.115630 +0530,
197,0,197,0,501.0187198999338,,500.99222850007936,5,501.0187198999338,501.0187198999338,0.012373700272291899,502.40723789995536,[-0.37166666666666665],[-0.13166666666666665],[1],[0],[0],[1.4028811999596655],['target'],140787,001,2024-10-10_18h53.20.830,visualsearch,2024.1.5,None,2024-10-10 18h53.28.115630 +0530,
198,0,198,0,502.451497499831,,502.4116233000532,10,502.451497499831,502.451497499831,0.028098300099372864,503.6386922998354,[-0.23833333333333334],[0.315],[1],[0],[0],[1.1996145001612604],['target'],140787,001,2024-10-10_18h53.20.830,visualsearch,2024.1.5,None,2024-10-10 18h53.28.115630 +0530,
199,0,199,0,503.6837631999515,,503.64161089994013,10,503.6837631999515,503.6837631999515,0.025936299934983253,505.25565299997106,[0.1],[0.08666666666666667],[1],[0],[0],[1.5883023999631405],['target'],140787,001,2024-10-10_18h53.20.830,visualsearch,2024.1.5,None,2024-10-10 18h53.28.115630 +0530,
