trials.thisRepN,trials.thisTrialN,trials.thisN,trials.thisIndex,thisRow.t,notes,trial.started,num_distr,fixation.started,target.started,mouse.started,trial.stopped,mouse.x,mouse.y,mouse.leftButton,mouse.midButton,mouse.rightButton,mouse.time,mouse.clicked_name,participant,session,date,expName,psychopyVersion,frameRate,expStart,
0,0,0,0,0.05763970036059618,,0.024482000153511763,5,0.05763970036059618,0.05763970036059618,0.044115100055933,1.4040286000818014,[-0.14833333333333334],[0.2916666666666667],[1],[0],[0],[1.3592742998152971],['target'],369964,001,2024-10-10_18h44.00.537,visualsearch,2024.1.5,None,2024-10-10 18h44.07.375286 +0530,
1,0,1,0,1.4357244004495442,,1.4073341004550457,5,1.4357244004495442,1.4357244004495442,0.017741600051522255,2.869835800025612,[0.39],[0.19666666666666666],[1],[0],[0],[1.44499670015648],['target'],369964,001,2024-10-10_18h44.00.537,visualsearch,2024.1.5,None,2024-10-10 18h44.07.375286 +0530,
2,0,2,0,2.909958100412041,,2.8724897000938654,10,2.909958100412041,2.909958100412041,0.026928399689495564,3.9866679003462195,[0.27166666666666667],[0.275],[1],[0],[0],[1.087456800043583],['target'],369964,001,2024-10-10_18h44.00.537,visualsearch,2024.1.5,None,2024-10-10 18h44.07.375286 +0530,
3,0,3,0,4.014755600132048,,3.9910703003406525,5,4.014755600132048,4.014755600132048,0.01594810001552105,5.101785800419748,[0.15666666666666668],[0.011666666666666667],[1],[0],[0],[1.0953509998507798],['target'],369964,001,2024-10-10_18h44.00.537,visualsearch,2024.1.5,None,2024-10-10 18h44.07.375286 +0530,
4,0,4,0,5.1309415004216135,,5.104563400149345,5,5.1309415004216135,5.1309415004216135,0.01191100012511015,6.617816700134426,[-0.45],[-0.056666666666666664],[1],[0],[0],[1.5015296996571124],['target'],369964,001,2024-10-10_18h44.00.537,visualsearch,2024.1.5,None,2024-10-10 18h44.07.375286 +0530,
5,0,5,0,6.664849400054663,,6.620624600443989,10,6.664849400054663,6.664849400054663,0.023573500104248524,8.41657550027594,[-0.17833333333333334],[-0.3433333333333333],[1],[0],[0],[1.772584999911487],['target'],369964,001,2024-10-10_18h44.00.537,visualsearch,2024.1.5,None,2024-10-10 18h44.07.375286 +0530,
6,0,6,0,8.46008350001648,,8.42047440027818,10,8.46008350001648,8.46008350001648,0.029959999956190586,10.349403600208461,[-0.38666666666666666],[0.43],[1],[0],[0],[1.8999144998379052],['target'],369964,001,2024-10-10_18h44.00.537,visualsearch,2024.1.5,None,2024-10-10 18h44.07.375286 +0530,
7,0,7,0,10.39363790024072,,10.352237600367516,10,10.39363790024072,10.39363790024072,0.030409500002861023,11.831667500082403,[0.09333333333333334],[-0.24333333333333335],[1],[0],[0],[1.4492596997879446],['target'],369964,001,2024-10-10_18h44.00.537,visualsearch,2024.1.5,None,2024-10-10 18h44.07.375286 +0530,
8,0,8,0,11.860729100182652,,11.834574100095779,5,11.860729100182652,11.860729100182652,0.016454500146210194,13.148974400013685,[0.46],[0.31333333333333335],[1],[0],[0],[1.298151500057429],['target'],369964,001,2024-10-10_18h44.00.537,visualsearch,2024.1.5,None,2024-10-10 18h44.07.375286 +0530,
9,0,9,0,13.176896100398153,,13.15234880009666,5,13.176896100398153,13.176896100398153,0.01554129971191287,15.263578500133008,[-0.195],[-0.04666666666666667],[1],[0],[0],[2.0960261998698115],['target'],369964,001,2024-10-10_18h44.00.537,visualsearch,2024.1.5,None,2024-10-10 18h44.07.375286 +0530,
10,0,10,0,15.299600300379097,,15.266257600393146,10,15.299600300379097,15.299600300379097,0.02299880003556609,16.5787589000538,[-0.19],[0.265],[1],[0],[0],[1.2897202000021935],['target'],369964,001,2024-10-10_18h44.00.537,visualsearch,2024.1.5,None,2024-10-10 18h44.07.375286 +0530,
11,0,11,0,16.60813910001889,,16.581397500354797,5,16.60813910001889,16.60813910001889,0.013355500064790249,17.630184000357985,[-0.31166666666666665],[0.36833333333333335],[1],[0],[0],[1.0356650003232062],['target'],369964,001,2024-10-10_18h44.00.537,visualsearch,2024.1.5,None,2024-10-10 18h44.07.375286 +0530,
12,0,12,0,17.65807680040598,,17.632886700332165,5,17.65807680040598,17.65807680040598,0.014041099697351456,19.110911100171506,[0.36833333333333335],[-0.21666666666666667],[1],[0],[0],[1.4642607001587749],['target'],369964,001,2024-10-10_18h44.00.537,visualsearch,2024.1.5,None,2024-10-10 18h44.07.375286 +0530,
13,0,13,0,19.140182200353593,,19.113761300221086,5,19.140182200353593,19.140182200353593,0.012169700115919113,20.32741630030796,[-0.06666666666666667],[-0.4633333333333333],[1],[0],[0],[1.201617700047791],['target'],369964,001,2024-10-10_18h44.00.537,visualsearch,2024.1.5,None,2024-10-10 18h44.07.375286 +0530,
14,0,14,0,20.356933900155127,,20.330379400402308,5,20.356933900155127,20.356933900155127,0.01665950007736683,21.509631600230932,[-0.105],[0.135],[1],[0],[0],[1.1626901999115944],['target'],369964,001,2024-10-10_18h44.00.537,visualsearch,2024.1.5,None,2024-10-10 18h44.07.375286 +0530,
15,0,15,0,21.538945500273257,,21.5125367003493,5,21.538945500273257,21.538945500273257,0.013524099718779325,22.910073100123554,[-0.17333333333333334],[-0.39666666666666667],[1],[0],[0],[1.3842197000049055],['target'],369964,001,2024-10-10_18h44.00.537,visualsearch,2024.1.5,None,2024-10-10 18h44.07.375286 +0530,
16,0,16,0,22.950469000265002,,22.91294370032847,10,22.950469000265002,22.950469000265002,0.027359200175851583,24.260867100208998,[0.015],[-0.03333333333333333],[1],[0],[0],[1.3208428001962602],['target'],369964,001,2024-10-10_18h44.00.537,visualsearch,2024.1.5,None,2024-10-10 18h44.07.375286 +0530,
17,0,17,0,24.294905100017786,,24.265981700271368,5,24.294905100017786,24.294905100017786,0.019673599861562252,26.24253650009632,[-0.405],[-0.445],[1],[0],[0],[1.9575784001499414],['target'],369964,001,2024-10-10_18h44.00.537,visualsearch,2024.1.5,None,2024-10-10 18h44.07.375286 +0530,
18,0,18,0,26.27063830010593,,26.24566170014441,5,26.27063830010593,26.27063830010593,0.016806299798190594,27.707522000186145,[0.4633333333333333],[-0.37833333333333335],[1],[0],[0],[1.4453699998557568],['target'],369964,001,2024-10-10_18h44.00.537,visualsearch,2024.1.5,None,2024-10-10 18h44.07.375286 +0530,
19,0,19,0,27.735903900116682,,27.710155400447547,5,27.735903900116682,27.735903900116682,0.013239300344139338,29.40612920001149,[0.03833333333333333],[0.23833333333333334],[1],[0],[0],[1.682956200093031],['target'],369964,001,2024-10-10_18h44.00.537,visualsearch,2024.1.5,None,2024-10-10 18h44.07.375286 +0530,
20,0,20,0,29.446642100345343,,29.408794100396335,10,29.446642100345343,29.446642100345343,0.023897199891507626,31.27120010042563,[-0.25333333333333335],[-0.46],[1],[0],[0],[1.8387120999395847],['target'],369964,001,2024-10-10_18h44.00.537,visualsearch,2024.1.5,None,2024-10-10 18h44.07.375286 +0530,
21,0,21,0,31.300418600440025,,31.27428140025586,5,31.300418600440025,31.300418600440025,0.014545100275427103,32.58747970033437,[0.21166666666666667],[-0.2833333333333333],[1],[0],[0],[1.298853799700737],['target'],369964,001,2024-10-10_18h44.00.537,visualsearch,2024.1.5,None,2024-10-10 18h44.07.375286 +0530,
22,0,22,0,32.631439400371164,,32.59226750023663,10,32.631439400371164,32.631439400371164,0.02790139988064766,33.25530030019581,[0.21166666666666667],[-0.2833333333333333],[1],[0],[0],[0.635786899831146],['target'],369964,001,2024-10-10_18h44.00.537,visualsearch,2024.1.5,None,2024-10-10 18h44.07.375286 +0530,
23,0,23,0,33.292221900075674,,33.25823550019413,10,33.292221900075674,33.292221900075674,0.023621500004082918,34.60358140012249,[-0.3883333333333333],[-0.43],[1],[0],[0],[1.3219979996792972],['target'],369964,001,2024-10-10_18h44.00.537,visualsearch,2024.1.5,None,2024-10-10 18h44.07.375286 +0530,
24,0,24,0,34.63210350042209,,34.60639760037884,5,34.63210350042209,34.63210350042209,0.014268099796026945,36.019241200294346,[0.43166666666666664],[0.21666666666666667],[1],[0],[0],[1.3988044001162052],['target'],369964,001,2024-10-10_18h44.00.537,visualsearch,2024.1.5,None,2024-10-10 18h44.07.375286 +0530,
25,0,25,0,36.059628300368786,,36.02204700000584,10,36.059628300368786,36.059628300368786,0.027423299849033356,37.586269500199705,[-0.445],[0.305],[1],[0],[0],[1.5370410000905395],['target'],369964,001,2024-10-10_18h44.00.537,visualsearch,2024.1.5,None,2024-10-10 18h44.07.375286 +0530,
26,0,26,0,37.613950500264764,,37.58956170035526,5,37.613950500264764,37.613950500264764,0.015060700010508299,39.00360540021211,[0.16166666666666665],[-0.03666666666666667],[1],[0],[0],[1.399313600268215],['target'],369964,001,2024-10-10_18h44.00.537,visualsearch,2024.1.5,None,2024-10-10 18h44.07.375286 +0530,
27,0,27,0,39.02997890021652,,39.00624560005963,5,39.02997890021652,39.02997890021652,0.0151293003000319,40.16768850013614,[-0.17666666666666667],[-0.16166666666666665],[1],[0],[0],[1.1465627998113632],['target'],369964,001,2024-10-10_18h44.00.537,visualsearch,2024.1.5,None,2024-10-10 18h44.07.375286 +0530,
28,0,28,0,40.21370750013739,,40.17120090033859,10,40.21370750013739,40.21370750013739,0.029126300010830164,46.49774040002376,[0.12],[0.42],[1],[0],[0],[6.297828400041908],['target'],369964,001,2024-10-10_18h44.00.537,visualsearch,2024.1.5,None,2024-10-10 18h44.07.375286 +0530,
29,0,29,0,46.525937400292605,,46.500743000302464,5,46.525937400292605,46.525937400292605,0.014955299906432629,48.430505000054836,[0.25],[-0.145],[1],[0],[0],[1.9148390996269882],['target'],369964,001,2024-10-10_18h44.00.537,visualsearch,2024.1.5,None,2024-10-10 18h44.07.375286 +0530,
30,0,30,0,48.47526570037007,,48.4363663000986,10,48.47526570037007,48.47526570037007,0.02941130008548498,50.09606370003894,[0.38166666666666665],[-0.3566666666666667],[1],[0],[0],[1.6312146000564098],['target'],369964,001,2024-10-10_18h44.00.537,visualsearch,2024.1.5,None,2024-10-10 18h44.07.375286 +0530,
31,0,31,0,50.137607800308615,,50.099822900258005,10,50.137607800308615,50.137607800308615,0.026958600152283907,51.67700420040637,[-0.2916666666666667],[-0.22666666666666666],[1],[0],[0],[1.550931100267917],['target'],369964,001,2024-10-10_18h44.00.537,visualsearch,2024.1.5,None,2024-10-10 18h44.07.375286 +0530,
32,0,32,0,51.71446580020711,,51.67975340038538,10,51.71446580020711,51.71446580020711,0.02399910008534789,53.92698140023276,[0.0016666666666666668],[-0.035],[1],[0],[0],[2.2234307997860014],['target'],369964,001,2024-10-10_18h44.00.537,visualsearch,2024.1.5,None,2024-10-10 18h44.07.375286 +0530,
33,0,33,0,53.97200980037451,,53.929721400141716,10,53.97200980037451,53.97200980037451,0.029702600091695786,55.626585400197655,[0.24833333333333332],[-0.006666666666666667],[1],[0],[0],[1.6673521003685892],['target'],369964,001,2024-10-10_18h44.00.537,visualsearch,2024.1.5,None,2024-10-10 18h44.07.375286 +0530,
34,0,34,0,55.65463180001825,,55.62973010027781,5,55.65463180001825,55.65463180001825,0.016881699673831463,57.04114680038765,[-0.465],[-0.011666666666666667],[1],[0],[0],[1.3946781996637583],['target'],369964,001,2024-10-10_18h44.00.537,visualsearch,2024.1.5,None,2024-10-10 18h44.07.375286 +0530,
35,0,35,0,57.07056420017034,,57.04416670044884,5,57.07056420017034,57.07056420017034,0.0121993999928236,58.37369620008394,[0.4716666666666667],[-0.015],[1],[0],[0],[1.3175344998016953],['target'],369964,001,2024-10-10_18h44.00.537,visualsearch,2024.1.5,None,2024-10-10 18h44.07.375286 +0530,
36,0,36,0,58.40303770033643,,58.37652690010145,5,58.40303770033643,58.40303770033643,0.015525199938565493,59.65750570036471,[-0.3566666666666667],[-0.25666666666666665],[1],[0],[0],[1.2657686998136342],['target'],369964,001,2024-10-10_18h44.00.537,visualsearch,2024.1.5,None,2024-10-10 18h44.07.375286 +0530,
37,0,37,0,59.68554130010307,,59.661665700376034,5,59.68554130010307,59.68554130010307,0.01615339983254671,61.24012850038707,[0.12166666666666667],[0.41],[1],[0],[0],[1.5630346997641027],['target'],369964,001,2024-10-10_18h44.00.537,visualsearch,2024.1.5,None,2024-10-10 18h44.07.375286 +0530,
38,0,38,0,61.27980490028858,,61.24340260028839,10,61.27980490028858,61.27980490028858,0.026048699859529734,62.82246050005779,[-0.225],[-0.39666666666666667],[1],[0],[0],[1.5532442000694573],['target'],369964,001,2024-10-10_18h44.00.537,visualsearch,2024.1.5,None,2024-10-10 18h44.07.375286 +0530,
39,0,39,0,62.85084720002487,,62.82526520034298,5,62.85084720002487,62.85084720002487,0.015083199832588434,64.23832470038906,[0.11166666666666666],[-0.085],[1],[0],[0],[1.3981201001442969],['target'],369964,001,2024-10-10_18h44.00.537,visualsearch,2024.1.5,None,2024-10-10 18h44.07.375286 +0530,
40,0,40,0,64.26651990041137,,64.24288030015305,5,64.26651990041137,64.26651990041137,0.016066300217062235,65.57273600017652,[0.09333333333333334],[-0.36],[1],[0],[0],[1.3144062999635935],['target'],369964,001,2024-10-10_18h44.00.537,visualsearch,2024.1.5,None,2024-10-10 18h44.07.375286 +0530,
41,0,41,0,65.62741190008819,,65.5781294000335,10,65.62741190008819,65.62741190008819,0.03600610001012683,67.88628740003332,[0.04666666666666667],[0.2916666666666667],[1],[0],[0],[2.2730283001437783],['target'],369964,001,2024-10-10_18h44.00.537,visualsearch,2024.1.5,None,2024-10-10 18h44.07.375286 +0530,
42,0,42,0,67.91459420043975,,67.88923070020974,5,67.91459420043975,67.91459420043975,0.01728580007329583,69.2517074001953,[0.295],[0.27166666666666667],[1],[0],[0],[1.3455523001030087],['target'],369964,001,2024-10-10_18h44.00.537,visualsearch,2024.1.5,None,2024-10-10 18h44.07.375286 +0530,
43,0,43,0,69.2876958004199,,69.25441460032016,10,69.2876958004199,69.2876958004199,0.022921099793165922,70.58580060023814,[-0.10666666666666667],[0.08],[1],[0],[0],[1.3086728998459876],['target'],369964,001,2024-10-10_18h44.00.537,visualsearch,2024.1.5,None,2024-10-10 18h44.07.375286 +0530,
44,0,44,0,70.6145146000199,,70.59034610027447,5,70.6145146000199,70.6145146000199,0.016965100076049566,72.00040150014684,[-0.04833333333333333],[-0.16833333333333333],[1],[0],[0],[1.3936966001056135],['target'],369964,001,2024-10-10_18h44.00.537,visualsearch,2024.1.5,None,2024-10-10 18h44.07.375286 +0530,
45,0,45,0,72.04048030031845,,72.0030471002683,10,72.04048030031845,72.04048030031845,0.026868900284171104,73.84977950016037,[0.3466666666666667],[0.42],[1],[0],[0],[1.8200725996866822],['target'],369964,001,2024-10-10_18h44.00.537,visualsearch,2024.1.5,None,2024-10-10 18h44.07.375286 +0530,
46,0,46,0,73.87832430005074,,73.85254070023075,5,73.87832430005074,73.87832430005074,0.014501800294965506,75.26560770021752,[-0.43166666666666664],[0.33666666666666667],[1],[0],[0],[1.398894099984318],['target'],369964,001,2024-10-10_18h44.00.537,visualsearch,2024.1.5,None,2024-10-10 18h44.07.375286 +0530,
47,0,47,0,75.29426460014656,,75.26835780031979,5,75.29426460014656,75.29426460014656,0.012488699983805418,76.64735490037128,[0.155],[0.07333333333333333],[1],[0],[0],[1.3667465997859836],['target'],369964,001,2024-10-10_18h44.00.537,visualsearch,2024.1.5,None,2024-10-10 18h44.07.375286 +0530,
48,0,48,0,76.68723700009286,,76.65056940028444,10,76.68723700009286,76.68723700009286,0.024709499906748533,77.93075000029057,[-0.295],[0.0],[1],[0],[0],[1.2558128996752203],['target'],369964,001,2024-10-10_18h44.00.537,visualsearch,2024.1.5,None,2024-10-10 18h44.07.375286 +0530,
49,0,49,0,77.95935040013865,,77.93514200020581,5,77.95935040013865,77.95935040013865,0.013827499933540821,79.62947710044682,[0.03666666666666667],[0.08166666666666667],[1],[0],[0],[1.6810647998936474],['target'],369964,001,2024-10-10_18h44.00.537,visualsearch,2024.1.5,None,2024-10-10 18h44.07.375286 +0530,
50,0,50,0,79.6584898000583,,79.63225410040468,5,79.6584898000583,79.6584898000583,0.012835999950766563,80.84609150001779,[-0.08666666666666667],[0.18833333333333332],[1],[0],[0],[1.201252999715507],['target'],369964,001,2024-10-10_18h44.00.537,visualsearch,2024.1.5,None,2024-10-10 18h44.07.375286 +0530,
51,0,51,0,80.88602260034531,,80.84912030026317,10,80.88602260034531,80.88602260034531,0.026716100051999092,82.51113130012527,[-0.09666666666666666],[-0.3616666666666667],[1],[0],[0],[1.635684700217098],['target'],369964,001,2024-10-10_18h44.00.537,visualsearch,2024.1.5,None,2024-10-10 18h44.07.375286 +0530,
52,0,52,0,82.5509053003043,,82.51383450021967,10,82.5509053003043,82.5509053003043,0.02444699965417385,83.86022320017219,[-0.49166666666666664],[-0.18166666666666667],[1],[0],[0],[1.3221972002647817],['target'],369964,001,2024-10-10_18h44.00.537,visualsearch,2024.1.5,None,2024-10-10 18h44.07.375286 +0530,
53,0,53,0,83.89912150008604,,83.86321110045537,10,83.89912150008604,83.89912150008604,0.02506010001525283,85.42703250003979,[-0.31833333333333336],[0.4116666666666667],[1],[0],[0],[1.539011999964714],['target'],369964,001,2024-10-10_18h44.00.537,visualsearch,2024.1.5,None,2024-10-10 18h44.07.375286 +0530,
54,0,54,0,85.4739487003535,,85.4298076000996,10,85.4739487003535,85.4739487003535,0.031056600157171488,87.24308460019529,[0.34],[-0.10166666666666667],[1],[0],[0],[1.7824646001681685],['target'],369964,001,2024-10-10_18h44.00.537,visualsearch,2024.1.5,None,2024-10-10 18h44.07.375286 +0530,
55,0,55,0,87.27417250024155,,87.24840420018882,5,87.27417250024155,87.27417250024155,0.0176614997908473,89.27411930030212,[-0.08],[0.38166666666666665],[1],[0],[0],[2.0088387997820973],['target'],369964,001,2024-10-10_18h44.00.537,visualsearch,2024.1.5,None,2024-10-10 18h44.07.375286 +0530,
56,0,56,0,89.31297870026901,,89.27791430009529,10,89.31297870026901,89.31297870026901,0.024892499670386314,90.92320240009576,[0.2916666666666667],[-0.26666666666666666],[1],[0],[0],[1.6211606999859214],['target'],369964,001,2024-10-10_18h44.00.537,visualsearch,2024.1.5,None,2024-10-10 18h44.07.375286 +0530,
57,0,57,0,90.96417690021917,,90.92606650013477,10,90.96417690021917,90.96417690021917,0.027561199851334095,92.57246860023588,[0.18666666666666668],[0.24166666666666667],[1],[0],[0],[1.619032199960202],['target'],369964,001,2024-10-10_18h44.00.537,visualsearch,2024.1.5,None,2024-10-10 18h44.07.375286 +0530,
58,0,58,0,92.60170510038733,,92.57683820044622,5,92.60170510038733,92.60170510038733,0.015976800117641687,94.15754160005599,[-0.21666666666666667],[-0.275],[1],[0],[0],[1.5653202999383211],['target'],369964,001,2024-10-10_18h44.00.537,visualsearch,2024.1.5,None,2024-10-10 18h44.07.375286 +0530,
59,0,59,0,94.18523450009525,,94.16052900021896,5,94.18523450009525,94.18523450009525,0.016152300406247377,95.48767300043255,[-0.13333333333333333],[0.26666666666666666],[1],[0],[0],[1.3112206002697349],['target'],369964,001,2024-10-10_18h44.00.537,visualsearch,2024.1.5,None,2024-10-10 18h44.07.375286 +0530,
60,0,60,0,95.51701580034569,,95.49033930012956,5,95.51701580034569,95.51701580034569,0.012135200202465057,96.80445779999718,[-0.37666666666666665],[0.38],[1],[0],[0],[1.3021932002156973],['target'],369964,001,2024-10-10_18h44.00.537,visualsearch,2024.1.5,None,2024-10-10 18h44.07.375286 +0530,
61,0,61,0,96.83296760031953,,96.80740670021623,5,96.83296760031953,96.83296760031953,0.015133700333535671,98.33687280025333,[-0.48],[-0.01],[1],[0],[0],[1.5146302999928594],['target'],369964,001,2024-10-10_18h44.00.537,visualsearch,2024.1.5,None,2024-10-10 18h44.07.375286 +0530,
62,0,62,0,98.36549620004371,,98.34063920006156,5,98.36549620004371,98.36549620004371,0.014936999883502722,100.10282160015777,[-0.31833333333333336],[0.3233333333333333],[1],[0],[0],[1.747443400323391],['target'],369964,001,2024-10-10_18h44.00.537,visualsearch,2024.1.5,None,2024-10-10 18h44.07.375286 +0530,
63,0,63,0,100.14998810039833,,100.10557940043509,10,100.14998810039833,100.14998810039833,0.03006279980763793,103.30027600005269,[0.11333333333333333],[-0.06],[1],[0],[0],[3.164898999966681],['target'],369964,001,2024-10-10_18h44.00.537,visualsearch,2024.1.5,None,2024-10-10 18h44.07.375286 +0530,
64,0,64,0,103.33728800015524,,103.30295700021088,10,103.33728800015524,103.33728800015524,0.023895699996501207,104.61791210016236,[0.09666666666666666],[-0.13166666666666665],[1],[0],[0],[1.2912628003396094],['target'],369964,001,2024-10-10_18h44.00.537,visualsearch,2024.1.5,None,2024-10-10 18h44.07.375286 +0530,
65,0,65,0,104.66181250009686,,104.62090100022033,10,104.66181250009686,104.66181250009686,0.02998079964891076,105.98205240024254,[0.325],[0.05],[1],[0],[0],[1.33132559992373],['target'],369964,001,2024-10-10_18h44.00.537,visualsearch,2024.1.5,None,2024-10-10 18h44.07.375286 +0530,
66,0,66,0,106.01137820025906,,105.98586860019714,5,106.01137820025906,106.01137820025906,0.0165285998955369,107.48211480025202,[-0.4766666666666667],[0.13666666666666666],[1],[0],[0],[1.4802957000210881],['target'],369964,001,2024-10-10_18h44.00.537,visualsearch,2024.1.5,None,2024-10-10 18h44.07.375286 +0530,
67,0,67,0,107.52110460028052,,107.48526300024241,10,107.52110460028052,107.52110460028052,0.025238600093871355,108.91384670045227,[0.41333333333333333],[0.2916666666666667],[1],[0],[0],[1.4035585997626185],['target'],369964,001,2024-10-10_18h44.00.537,visualsearch,2024.1.5,None,2024-10-10 18h44.07.375286 +0530,
68,0,68,0,108.94310290040448,,108.9165722001344,5,108.94310290040448,108.94310290040448,0.013238700106739998,110.76345070032403,[0.45166666666666666],[-0.30833333333333335],[1],[0],[0],[1.8337995000183582],['target'],369964,001,2024-10-10_18h44.00.537,visualsearch,2024.1.5,None,2024-10-10 18h44.07.375286 +0530,
69,0,69,0,110.80329840024933,,110.76634880015627,10,110.80329840024933,110.80329840024933,0.02464029984548688,111.94618700025603,[0.3233333333333333],[-0.25166666666666665],[1],[0],[0],[1.1555906999856234],['target'],369964,001,2024-10-10_18h44.00.537,visualsearch,2024.1.5,None,2024-10-10 18h44.07.375286 +0530,
70,0,70,0,111.98411100031808,,111.95177750010043,5,111.98411100031808,111.98411100031808,0.02246270002797246,113.19484400004148,[0.325],[0.32166666666666666],[1],[0],[0],[1.2215225999243557],['target'],369964,001,2024-10-10_18h44.00.537,visualsearch,2024.1.5,None,2024-10-10 18h44.07.375286 +0530,
71,0,71,0,113.2248333003372,,113.20026780012995,5,113.2248333003372,113.2248333003372,0.01735299965366721,114.52878150017932,[0.46],[0.4683333333333333],[1],[0],[0],[1.311970700044185],['target'],369964,001,2024-10-10_18h44.00.537,visualsearch,2024.1.5,None,2024-10-10 18h44.07.375286 +0530,
72,0,72,0,114.55693470034748,,114.53152620000765,5,114.55693470034748,114.55693470034748,0.012878299690783024,115.87750760000199,[-0.16833333333333333],[-0.2783333333333333],[1],[0],[0],[1.3333246000111103],['target'],369964,001,2024-10-10_18h44.00.537,visualsearch,2024.1.5,None,2024-10-10 18h44.07.375286 +0530,
73,0,73,0,115.9063684004359,,115.88183010043576,5,115.9063684004359,115.9063684004359,0.014571900013834238,117.12575050024316,[0.07166666666666667],[-0.12833333333333333],[1],[0],[0],[1.2300880998373032],['target'],369964,001,2024-10-10_18h44.00.537,visualsearch,2024.1.5,None,2024-10-10 18h44.07.375286 +0530,
74,0,74,0,117.1654822002165,,117.12853190023452,10,117.1654822002165,117.1654822002165,0.026071599684655666,118.47545890044421,[0.27],[0.27],[1],[0],[0],[1.321080000139773],['target'],369964,001,2024-10-10_18h44.00.537,visualsearch,2024.1.5,None,2024-10-10 18h44.07.375286 +0530,
75,0,75,0,118.52015650039539,,118.48016170039773,10,118.52015650039539,118.52015650039539,0.029071900062263012,119.95921820029616,[-0.18833333333333332],[0.045],[1],[0],[0],[1.450140000320971],['target'],369964,001,2024-10-10_18h44.00.537,visualsearch,2024.1.5,None,2024-10-10 18h44.07.375286 +0530,
76,0,76,0,119.98788830032572,,119.96468299999833,5,119.98788830032572,119.98788830032572,0.01658939989283681,121.15741070033982,[-0.31666666666666665],[0.16666666666666666],[1],[0],[0],[1.1769396997988224],['target'],369964,001,2024-10-10_18h44.00.537,visualsearch,2024.1.5,None,2024-10-10 18h44.07.375286 +0530,
77,0,77,0,121.19462830014527,,121.16037860000506,10,121.19462830014527,121.19462830014527,0.023637300357222557,134.734268900007,[0.028333333333333332],[0.2866666666666667],[1],[0],[0],[13.550489699933678],['target'],369964,001,2024-10-10_18h44.00.537,visualsearch,2024.1.5,None,2024-10-10 18h44.07.375286 +0530,
78,0,78,0,134.76311050029472,,134.73700120020658,5,134.76311050029472,134.76311050029472,0.014676099643111229,136.83351790020242,[0.16333333333333333],[-0.11],[1],[0],[0],[2.0821122000925243],['target'],369964,001,2024-10-10_18h44.00.537,visualsearch,2024.1.5,None,2024-10-10 18h44.07.375286 +0530,
79,0,79,0,136.86220450000837,,136.83632970042527,5,136.86220450000837,136.86220450000837,0.012045199982821941,138.21561320032924,[0.3416666666666667],[0.25833333333333336],[1],[0],[0],[1.3674508999101818],['target'],369964,001,2024-10-10_18h44.00.537,visualsearch,2024.1.5,None,2024-10-10 18h44.07.375286 +0530,
80,0,80,0,138.24440790014341,,138.2183532002382,5,138.24440790014341,138.24440790014341,0.012551899999380112,139.49868290033191,[-0.20333333333333334],[-0.035],[1],[0],[0],[1.2679767003282905],['target'],369964,001,2024-10-10_18h44.00.537,visualsearch,2024.1.5,None,2024-10-10 18h44.07.375286 +0530,
81,0,81,0,139.52735280012712,,139.50133400037885,5,139.52735280012712,139.52735280012712,0.01197119988501072,140.83125040028244,[-0.4583333333333333],[-0.30666666666666664],[1],[0],[0],[1.3180912001989782],['target'],369964,001,2024-10-10_18h44.00.537,visualsearch,2024.1.5,None,2024-10-10 18h44.07.375286 +0530,
82,0,82,0,140.87799310032278,,140.8354644002393,10,140.87799310032278,140.87799310032278,0.03180780028924346,142.74721470009536,[-0.25166666666666665],[-0.045],[1],[0],[0],[1.8804897996596992],['target'],369964,001,2024-10-10_18h44.00.537,visualsearch,2024.1.5,None,2024-10-10 18h44.07.375286 +0530,
83,0,83,0,142.77526640007272,,142.7517830003053,5,142.77526640007272,142.77526640007272,0.015286999754607677,144.12967020040378,[0.12666666666666668],[-0.3016666666666667],[1],[0],[0],[1.3632728001102805],['target'],369964,001,2024-10-10_18h44.00.537,visualsearch,2024.1.5,None,2024-10-10 18h44.07.375286 +0530,
84,0,84,0,144.1578767001629,,144.1323595000431,5,144.1578767001629,144.1578767001629,0.014172299765050411,145.51297870045528,[-0.4533333333333333],[-0.17833333333333334],[1],[0],[0],[1.366630899719894],['target'],369964,001,2024-10-10_18h44.00.537,visualsearch,2024.1.5,None,2024-10-10 18h44.07.375286 +0530,
85,0,85,0,145.54051830014214,,145.51591380033642,5,145.54051830014214,145.54051830014214,0.013107699807733297,146.49455450009555,[-0.41],[-0.17833333333333334],[1],[0],[0],[0.9657303001731634],['target'],369964,001,2024-10-10_18h44.00.537,visualsearch,2024.1.5,None,2024-10-10 18h44.07.375286 +0530,
86,0,86,0,146.53861200017855,,146.49763960018754,10,146.53861200017855,146.53861200017855,0.03088180022314191,148.32614630041644,[0.16333333333333333],[-0.22833333333333333],[1],[0],[0],[1.7981722997501493],['target'],369964,001,2024-10-10_18h44.00.537,visualsearch,2024.1.5,None,2024-10-10 18h44.07.375286 +0530,
87,0,87,0,148.35577220004052,,148.33016160037369,5,148.35577220004052,148.35577220004052,0.01574460044503212,150.05994420032948,[0.4816666666666667],[0.335],[1],[0],[0],[1.714561800006777],['target'],369964,001,2024-10-10_18h44.00.537,visualsearch,2024.1.5,None,2024-10-10 18h44.07.375286 +0530,
88,0,88,0,150.08809600025415,,150.06427920004353,5,150.08809600025415,150.08809600025415,0.016064000315964222,151.30845720041543,[0.11],[0.08333333333333333],[1],[0],[0],[1.2286665998399258],['target'],369964,001,2024-10-10_18h44.00.537,visualsearch,2024.1.5,None,2024-10-10 18h44.07.375286 +0530,
89,0,89,0,151.33785420004278,,151.3110682000406,5,151.33785420004278,151.33785420004278,0.013248800300061703,152.90870590042323,[-0.2966666666666667],[0.12333333333333334],[1],[0],[0],[1.584480999968946],['target'],369964,001,2024-10-10_18h44.00.537,visualsearch,2024.1.5,None,2024-10-10 18h44.07.375286 +0530,
90,0,90,0,152.9367764000781,,152.91142700007185,5,152.9367764000781,152.9367764000781,0.014098899904638529,154.42399650020525,[0.03833333333333333],[0.42],[1],[0],[0],[1.4987133000977337],['target'],369964,001,2024-10-10_18h44.00.537,visualsearch,2024.1.5,None,2024-10-10 18h44.07.375286 +0530,
91,0,91,0,154.46645380044356,,154.42879740009084,10,154.46645380044356,154.46645380044356,0.027488499879837036,155.57216910040006,[0.465],[0.135],[1],[0],[0],[1.1166254999116063],['target'],369964,001,2024-10-10_18h44.00.537,visualsearch,2024.1.5,None,2024-10-10 18h44.07.375286 +0530,
92,0,92,0,155.601952300407,,155.57662170007825,5,155.601952300407,155.601952300407,0.015232600271701813,157.2891721003689,[-0.2],[-0.365],[1],[0],[0],[1.6979284002445638],['target'],369964,001,2024-10-10_18h44.00.537,visualsearch,2024.1.5,None,2024-10-10 18h44.07.375286 +0530,
93,0,93,0,157.31785220000893,,157.2925344002433,5,157.31785220000893,157.31785220000893,0.013538800179958344,158.43938580015674,[-0.17],[-0.095],[1],[0],[0],[1.133517799898982],['target'],369964,001,2024-10-10_18h44.00.537,visualsearch,2024.1.5,None,2024-10-10 18h44.07.375286 +0530,
94,0,94,0,158.47625420009717,,158.44198730029166,10,158.47625420009717,158.47625420009717,0.02347170002758503,160.43748780013993,[0.3416666666666667],[0.42333333333333334],[1],[0],[0],[1.9721848000772297],['target'],369964,001,2024-10-10_18h44.00.537,visualsearch,2024.1.5,None,2024-10-10 18h44.07.375286 +0530,
95,0,95,0,160.4776306003332,,160.4402801003307,10,160.4776306003332,160.4776306003332,0.02333390014246106,162.28684220043942,[0.08166666666666667],[-0.3983333333333333],[1],[0],[0],[1.8234343999065459],['target'],369964,001,2024-10-10_18h44.00.537,visualsearch,2024.1.5,None,2024-10-10 18h44.07.375286 +0530,
96,0,96,0,162.3298673001118,,162.29264330025762,10,162.3298673001118,162.3298673001118,0.027580800000578165,163.80296400003135,[-0.36833333333333335],[-0.3233333333333333],[1],[0],[0],[1.4836475001648068],['target'],369964,001,2024-10-10_18h44.00.537,visualsearch,2024.1.5,None,2024-10-10 18h44.07.375286 +0530,
97,0,97,0,163.83105310006067,,163.80728649999946,5,163.83105310006067,163.83105310006067,0.01427219994366169,165.41836430039257,[0.175],[0.43166666666666664],[1],[0],[0],[1.5973718999885023],['target'],369964,001,2024-10-10_18h44.00.537,visualsearch,2024.1.5,None,2024-10-10 18h44.07.375286 +0530,
98,0,98,0,165.45426420029253,,165.42097450001165,10,165.45426420029253,165.45426420029253,0.022947799880057573,167.0164419002831,[0.21166666666666667],[-0.06666666666666667],[1],[0],[0],[1.572710500098765],['target'],369964,001,2024-10-10_18h44.00.537,visualsearch,2024.1.5,None,2024-10-10 18h44.07.375286 +0530,
99,0,99,0,167.0549129000865,,167.01927540032193,10,167.0549129000865,167.0549129000865,0.025501499883830547,168.84944760007784,[-0.47833333333333333],[-0.18],[1],[0],[0],[1.8048750995658338],['target'],369964,001,2024-10-10_18h44.00.537,visualsearch,2024.1.5,None,2024-10-10 18h44.07.375286 +0530,
100,0,100,0,168.88857790036127,,168.85258440021425,10,168.88857790036127,168.88857790036127,0.025444999802857637,170.68194910045713,[-0.2816666666666667],[-0.315],[1],[0],[0],[1.8043202003464103],['target'],369964,001,2024-10-10_18h44.00.537,visualsearch,2024.1.5,None,2024-10-10 18h44.07.375286 +0530,
101,0,101,0,170.7248992002569,,170.68497570045292,10,170.7248992002569,170.7248992002569,0.0269808997400105,172.41417030012235,[0.2783333333333333],[0.38666666666666666],[1],[0],[0],[1.7025708998553455],['target'],369964,001,2024-10-10_18h44.00.537,visualsearch,2024.1.5,None,2024-10-10 18h44.07.375286 +0530,
102,0,102,0,172.44319810019806,,172.41699300007895,5,172.44319810019806,172.44319810019806,0.014240299817174673,174.91284840041772,[-0.4483333333333333],[0.215],[1],[0],[0],[2.4818591000512242],['target'],369964,001,2024-10-10_18h44.00.537,visualsearch,2024.1.5,None,2024-10-10 18h44.07.375286 +0530,
103,0,103,0,174.9496207004413,,174.91554870037362,10,174.9496207004413,174.9496207004413,0.023465599864721298,177.21245120000094,[-0.2966666666666667],[-0.4266666666666667],[1],[0],[0],[2.2737118997611105],['target'],369964,001,2024-10-10_18h44.00.537,visualsearch,2024.1.5,None,2024-10-10 18h44.07.375286 +0530,
104,0,104,0,177.2592936004512,,177.21562110027298,10,177.2592936004512,177.2592936004512,0.032497100066393614,179.0115433000028,[0.37833333333333335],[-0.08666666666666667],[1],[0],[0],[1.7637895001098514],['target'],369964,001,2024-10-10_18h44.00.537,visualsearch,2024.1.5,None,2024-10-10 18h44.07.375286 +0530,
105,0,105,0,179.0420354004018,,179.01623600022867,5,179.0420354004018,179.0420354004018,0.017673300113528967,180.428307000082,[-0.035],[-0.4533333333333333],[1],[0],[0],[1.3951097000390291],['target'],369964,001,2024-10-10_18h44.00.537,visualsearch,2024.1.5,None,2024-10-10 18h44.07.375286 +0530,
106,0,106,0,180.47379270009696,,180.43203230015934,10,180.47379270009696,180.47379270009696,0.030800000298768282,181.6937856003642,[0.15166666666666667],[-0.4066666666666667],[1],[0],[0],[1.2311015999875963],['target'],369964,001,2024-10-10_18h44.00.537,visualsearch,2024.1.5,None,2024-10-10 18h44.07.375286 +0530,
107,0,107,0,181.7364211003296,,181.69665550021455,10,181.7364211003296,181.7364211003296,0.026402299758046865,182.95986710023135,[-0.07666666666666666],[-0.45166666666666666],[1],[0],[0],[1.2370808999985456],['target'],369964,001,2024-10-10_18h44.00.537,visualsearch,2024.1.5,None,2024-10-10 18h44.07.375286 +0530,
108,0,108,0,183.0007770000957,,182.9628599002026,10,183.0007770000957,183.0007770000957,0.024804099928587675,184.17580060008913,[0.3383333333333333],[-0.4533333333333333],[1],[0],[0],[1.188307600095868],['target'],369964,001,2024-10-10_18h44.00.537,visualsearch,2024.1.5,None,2024-10-10 18h44.07.375286 +0530,
109,0,109,0,184.23064080020413,,184.17994670011103,10,184.23064080020413,184.23064080020413,0.03517250018194318,191.8706886,[0.3383333333333333],[-0.4533333333333333],[1],[0],[0],[7.656168699730188],[],369964,001,2024-10-10_18h44.00.537,visualsearch,2024.1.5,None,2024-10-10 18h44.07.375286 +0530,
110,0,110,0,191.9171949001029,,191.87492280034348,10,191.9171949001029,191.9171949001029,0.030516499653458595,193.33629270037636,[-0.09333333333333334],[-0.25333333333333335],[1],[0],[0],[1.431444900110364],['target'],369964,001,2024-10-10_18h44.00.537,visualsearch,2024.1.5,None,2024-10-10 18h44.07.375286 +0530,
111,0,111,0,193.38086930010468,,193.3391062002629,10,193.38086930010468,193.38086930010468,0.025243400130420923,194.80314420023933,[0.25],[0.30833333333333335],[1],[0],[0],[1.4390985001809895],['target'],369964,001,2024-10-10_18h44.00.537,visualsearch,2024.1.5,None,2024-10-10 18h44.07.375286 +0530,
112,0,112,0,194.83144880039617,,194.80619950033724,5,194.83144880039617,194.83144880039617,0.014666999690234661,196.05358450021595,[-0.0016666666666666668],[0.16333333333333333],[1],[0],[0],[1.2330490997992456],['target'],369964,001,2024-10-10_18h44.00.537,visualsearch,2024.1.5,None,2024-10-10 18h44.07.375286 +0530,
113,0,113,0,196.0983006004244,,196.05639300029725,10,196.0983006004244,196.0983006004244,0.026178099680691957,197.40339370025322,[-0.01],[0.28],[1],[0],[0],[1.3210567999631166],['target'],369964,001,2024-10-10_18h44.00.537,visualsearch,2024.1.5,None,2024-10-10 18h44.07.375286 +0530,
114,0,114,0,197.45444680005312,,197.40727350022644,10,197.45444680005312,197.45444680005312,0.03644309984520078,199.06781760044396,[0.03],[0.38166666666666665],[1],[0],[0],[1.624509900342673],['target'],369964,001,2024-10-10_18h44.00.537,visualsearch,2024.1.5,None,2024-10-10 18h44.07.375286 +0530,
115,0,115,0,199.11475360020995,,199.0718174003996,10,199.11475360020995,199.11475360020995,0.03273170022293925,200.75002190005034,[0.38333333333333336],[-0.27166666666666667],[1],[0],[0],[1.6462989998981357],['target'],369964,001,2024-10-10_18h44.00.537,visualsearch,2024.1.5,None,2024-10-10 18h44.07.375286 +0530,
116,0,116,0,200.79171100025997,,200.75301730027422,10,200.79171100025997,200.79171100025997,0.02798510016873479,202.39893210027367,[-0.285],[0.2866666666666667],[1],[0],[0],[1.6181220998987556],['target'],369964,001,2024-10-10_18h44.00.537,visualsearch,2024.1.5,None,2024-10-10 18h44.07.375286 +0530,
117,0,117,0,202.43841100018471,,202.40205140039325,10,202.43841100018471,202.43841100018471,0.0265819001942873,203.66417610039935,[-0.16666666666666666],[0.435],[1],[0],[0],[1.2358524999581277],['target'],369964,001,2024-10-10_18h44.00.537,visualsearch,2024.1.5,None,2024-10-10 18h44.07.375286 +0530,
118,0,118,0,203.72055930038914,,203.66877910029143,10,203.72055930038914,203.72055930038914,0.03628999972715974,205.1626869002357,[0.185],[0.07333333333333333],[1],[0],[0],[1.4579678000882268],['target'],369964,001,2024-10-10_18h44.00.537,visualsearch,2024.1.5,None,2024-10-10 18h44.07.375286 +0530,
119,0,119,0,205.19257100019604,,205.16541710030288,5,205.19257100019604,205.19257100019604,0.013137500267475843,206.7308879001066,[-0.475],[0.2683333333333333],[1],[0],[0],[1.5525552998296916],['target'],369964,001,2024-10-10_18h44.00.537,visualsearch,2024.1.5,None,2024-10-10 18h44.07.375286 +0530,
120,0,120,0,206.77848940016702,,206.7348455004394,10,206.77848940016702,206.77848940016702,0.03097129985690117,208.16226200014353,[-0.19],[0.29833333333333334],[1],[0],[0],[1.3966955998912454],['target'],369964,001,2024-10-10_18h44.00.537,visualsearch,2024.1.5,None,2024-10-10 18h44.07.375286 +0530,
121,0,121,0,208.19764700019732,,208.1650100001134,10,208.19764700019732,208.19764700019732,0.022566100116819143,209.577483500354,[-0.095],[-0.145],[1],[0],[0],[1.3901753001846373],['target'],369964,001,2024-10-10_18h44.00.537,visualsearch,2024.1.5,None,2024-10-10 18h44.07.375286 +0530,
122,0,122,0,209.6069795000367,,209.5801387000829,5,209.6069795000367,209.6069795000367,0.01194040011614561,211.0460888002999,[-0.4116666666666667],[-0.095],[1],[0],[0],[1.454210499767214],['target'],369964,001,2024-10-10_18h44.00.537,visualsearch,2024.1.5,None,2024-10-10 18h44.07.375286 +0530,
123,0,123,0,211.07421950018033,,211.05030230013654,5,211.07421950018033,211.07421950018033,0.015432700049132109,212.66025610035285,[-0.04],[0.16],[1],[0],[0],[1.5952599998563528],['target'],369964,001,2024-10-10_18h44.00.537,visualsearch,2024.1.5,None,2024-10-10 18h44.07.375286 +0530,
124,0,124,0,212.6886564004235,,212.66329680010676,5,212.6886564004235,212.6886564004235,0.012686799746006727,214.79139740020037,[0.37666666666666665],[0.14166666666666666],[1],[0],[0],[2.115682600066066],['target'],369964,001,2024-10-10_18h44.00.537,visualsearch,2024.1.5,None,2024-10-10 18h44.07.375286 +0530,
125,0,125,0,214.82087990036234,,214.79412740003318,5,214.82087990036234,214.82087990036234,0.01297369971871376,216.5581713002175,[-0.12333333333333334],[-0.02666666666666667],[1],[0],[0],[1.7512845997698605],['target'],369964,001,2024-10-10_18h44.00.537,visualsearch,2024.1.5,None,2024-10-10 18h44.07.375286 +0530,
126,0,126,0,216.59850440034643,,216.5609720000066,10,216.59850440034643,216.59850440034643,0.027072299737483263,217.85594140039757,[0.15833333333333333],[0.15666666666666668],[1],[0],[0],[1.2681291997432709],['target'],369964,001,2024-10-10_18h44.00.537,visualsearch,2024.1.5,None,2024-10-10 18h44.07.375286 +0530,
127,0,127,0,217.8859977000393,,217.85868600010872,5,217.8859977000393,217.8859977000393,0.012140500359237194,219.1560386000201,[-0.06833333333333333],[0.32666666666666666],[1],[0],[0],[1.2854214003309608],['target'],369964,001,2024-10-10_18h44.00.537,visualsearch,2024.1.5,None,2024-10-10 18h44.07.375286 +0530,
128,0,128,0,219.18513140035793,,219.1588761000894,5,219.18513140035793,219.18513140035793,0.012307099997997284,220.78915840014815,[0.49166666666666664],[0.045],[1],[0],[0],[1.618197100237012],['target'],369964,001,2024-10-10_18h44.00.537,visualsearch,2024.1.5,None,2024-10-10 18h44.07.375286 +0530,
129,0,129,0,220.83072680002078,,220.7934177001007,10,220.83072680002078,220.83072680002078,0.02725069969892502,221.98747920012102,[0.425],[-0.205],[1],[0],[0],[1.167206299956888],['target'],369964,001,2024-10-10_18h44.00.537,visualsearch,2024.1.5,None,2024-10-10 18h44.07.375286 +0530,
130,0,130,0,222.03172670025378,,221.99049650039524,10,222.03172670025378,222.03172670025378,0.0310011999681592,223.3875643000938,[-0.245],[-0.22333333333333333],[1],[0],[0],[1.3662948003038764],['target'],369964,001,2024-10-10_18h44.00.537,visualsearch,2024.1.5,None,2024-10-10 18h44.07.375286 +0530,
131,0,131,0,223.41638410044834,,223.3901940002106,5,223.41638410044834,223.41638410044834,0.011636999901384115,224.60304330009967,[0.285],[-0.23666666666666666],[1],[0],[0],[1.2014615996740758],['target'],369964,001,2024-10-10_18h44.00.537,visualsearch,2024.1.5,None,2024-10-10 18h44.07.375286 +0530,
132,0,132,0,224.632541900035,,224.60575630003586,5,224.632541900035,224.632541900035,0.012867600191384554,226.9858446000144,[0.25333333333333335],[0.36],[1],[0],[0],[2.367449900135398],['target'],369964,001,2024-10-10_18h44.00.537,visualsearch,2024.1.5,None,2024-10-10 18h44.07.375286 +0530,
133,0,133,0,227.01438460033387,,226.98931410023943,5,227.01438460033387,227.01438460033387,0.015031700022518635,228.5519552002661,[0.11833333333333333],[-0.09333333333333334],[1],[0],[0],[1.5477908998727798],['target'],369964,001,2024-10-10_18h44.00.537,visualsearch,2024.1.5,None,2024-10-10 18h44.07.375286 +0530,
134,0,134,0,228.59529240010306,,228.5555725004524,10,228.59529240010306,228.59529240010306,0.03045969968661666,231.2167204003781,[-0.405],[-0.22666666666666666],[1],[0],[0],[2.6315645002759993],['target'],369964,001,2024-10-10_18h44.00.537,visualsearch,2024.1.5,None,2024-10-10 18h44.07.375286 +0530,
135,0,135,0,231.25900350045413,,231.22098110010847,10,231.25900350045413,231.25900350045413,0.025484200101345778,233.73258560011163,[0.11],[-0.355],[1],[0],[0],[2.486671700142324],['target'],369964,001,2024-10-10_18h44.00.537,visualsearch,2024.1.5,None,2024-10-10 18h44.07.375286 +0530,
136,0,136,0,233.76121730031446,,233.73522880021483,5,233.76121730031446,233.76121730031446,0.011882100254297256,236.41511800000444,[-0.43],[0.37],[1],[0],[0],[2.6682510003447533],['target'],369964,001,2024-10-10_18h44.00.537,visualsearch,2024.1.5,None,2024-10-10 18h44.07.375286 +0530,
137,0,137,0,236.44604080030695,,236.42057980038226,5,236.44604080030695,236.44604080030695,0.01830929983407259,238.34654840035364,[-0.3433333333333333],[-0.20833333333333334],[1],[0],[0],[1.90865459991619],['target'],369964,001,2024-10-10_18h44.00.537,visualsearch,2024.1.5,None,2024-10-10 18h44.07.375286 +0530,
138,0,138,0,238.3946560001932,,238.34968760004267,10,238.3946560001932,238.3946560001932,0.03127819998189807,240.9446754003875,[0.28833333333333333],[0.275],[1],[0],[0],[2.5640185000374913],['target'],369964,001,2024-10-10_18h44.00.537,visualsearch,2024.1.5,None,2024-10-10 18h44.07.375286 +0530,
139,0,139,0,240.98328070016578,,240.94754140032455,10,240.98328070016578,240.98328070016578,0.025141799822449684,243.02707670023665,[0.43333333333333335],[0.3383333333333333],[1],[0],[0],[2.0546583998948336],['target'],369964,001,2024-10-10_18h44.00.537,visualsearch,2024.1.5,None,2024-10-10 18h44.07.375286 +0530,
140,0,140,0,243.06529620010406,,243.03020930010825,10,243.06529620010406,243.06529620010406,0.024641900323331356,244.45899290032685,[-0.38],[0.185],[1],[0],[0],[1.404340900015086],['target'],369964,001,2024-10-10_18h44.00.537,visualsearch,2024.1.5,None,2024-10-10 18h44.07.375286 +0530,
141,0,141,0,244.4886626000516,,244.4616715000011,5,244.4886626000516,244.4886626000516,0.013391999993473291,245.75924580032006,[-0.4266666666666667],[0.34],[1],[0],[0],[1.2843985999934375],['target'],369964,001,2024-10-10_18h44.00.537,visualsearch,2024.1.5,None,2024-10-10 18h44.07.375286 +0530,
142,0,142,0,245.7879747003317,,245.76234150025994,5,245.7879747003317,245.7879747003317,0.011985700111836195,247.2918511000462,[-0.19166666666666668],[0.32666666666666666],[1],[0],[0],[1.517780200112611],['target'],369964,001,2024-10-10_18h44.00.537,visualsearch,2024.1.5,None,2024-10-10 18h44.07.375286 +0530,
143,0,143,0,247.3305583000183,,247.29532080003992,10,247.3305583000183,247.3305583000183,0.025426999665796757,252.67343840003014,[0.32666666666666666],[0.13833333333333334],[1],[0],[0],[5.353236299939454],['target'],369964,001,2024-10-10_18h44.00.537,visualsearch,2024.1.5,None,2024-10-10 18h44.07.375286 +0530,
144,0,144,0,252.7148232003674,,252.6777508002706,10,252.7148232003674,252.7148232003674,0.026444499846547842,254.33831570018083,[0.023333333333333334],[-0.12666666666666668],[1],[0],[0],[1.634796999860555],['target'],369964,001,2024-10-10_18h44.00.537,visualsearch,2024.1.5,None,2024-10-10 18h44.07.375286 +0530,
145,0,145,0,254.37584500014782,,254.34097020002082,10,254.37584500014782,254.37584500014782,0.023579999804496765,256.93599000014365,[0.23],[0.38666666666666666],[1],[0],[0],[2.571624099742621],['target'],369964,001,2024-10-10_18h44.00.537,visualsearch,2024.1.5,None,2024-10-10 18h44.07.375286 +0530,
146,0,146,0,256.96537510026246,,256.9386254004203,5,256.96537510026246,256.96537510026246,0.013875599950551987,258.852572100237,[-0.43666666666666665],[-0.14833333333333334],[1],[0],[0],[1.900252700317651],['target'],369964,001,2024-10-10_18h44.00.537,visualsearch,2024.1.5,None,2024-10-10 18h44.07.375286 +0530,
147,0,147,0,258.8812426002696,,258.855482800398,5,258.8812426002696,258.8812426002696,0.013030599802732468,260.6020295000635,[0.465],[0.1],[1],[0],[0],[1.733685600105673],['target'],369964,001,2024-10-10_18h44.00.537,visualsearch,2024.1.5,None,2024-10-10 18h44.07.375286 +0530,
148,0,148,0,260.6404000003822,,260.60547850001603,10,260.6404000003822,260.6404000003822,0.023906500078737736,261.8683031001128,[0.18166666666666667],[-0.005],[1],[0],[0],[1.2390948999673128],['target'],369964,001,2024-10-10_18h44.00.537,visualsearch,2024.1.5,None,2024-10-10 18h44.07.375286 +0530,
149,0,149,0,261.9094906002283,,261.8711088001728,10,261.9094906002283,261.9094906002283,0.02784659992903471,263.11677940003574,[-0.31],[-0.28],[1],[0],[0],[1.2180663999170065],['target'],369964,001,2024-10-10_18h44.00.537,visualsearch,2024.1.5,None,2024-10-10 18h44.07.375286 +0530,
150,0,150,0,263.14541200036183,,263.1194259002805,5,263.14541200036183,263.14541200036183,0.012106799986213446,264.4831640003249,[-0.08666666666666667],[-0.3466666666666667],[1],[0],[0],[1.3518345998600125],['target'],369964,001,2024-10-10_18h44.00.537,visualsearch,2024.1.5,None,2024-10-10 18h44.07.375286 +0530,
151,0,151,0,264.5114697003737,,264.4861715002917,5,264.5114697003737,264.5114697003737,0.013690500054508448,265.9146998003125,[0.4066666666666667],[-0.19166666666666668],[1],[0],[0],[1.4151278999634087],['target'],369964,001,2024-10-10_18h44.00.537,visualsearch,2024.1.5,None,2024-10-10 18h44.07.375286 +0530,
152,0,152,0,265.9441365003586,,265.91785610001534,5,265.9441365003586,265.9441365003586,0.014212700072675943,267.9811012004502,[0.4266666666666667],[-0.37833333333333335],[1],[0],[0],[2.049562099855393],['target'],369964,001,2024-10-10_18h44.00.537,visualsearch,2024.1.5,None,2024-10-10 18h44.07.375286 +0530,
153,0,153,0,268.0240606004372,,267.98562000039965,10,268.0240606004372,268.0240606004372,0.0279878000728786,270.21337030036375,[-0.4216666666666667],[0.44666666666666666],[1],[0],[0],[2.200026299804449],['target'],369964,001,2024-10-10_18h44.00.537,visualsearch,2024.1.5,None,2024-10-10 18h44.07.375286 +0530,
154,0,154,0,270.25518140010536,,270.2162237004377,10,270.25518140010536,270.25518140010536,0.026604299899190664,271.5476169004105,[-0.18333333333333332],[-0.40166666666666667],[1],[0],[0],[1.3050140999257565],['target'],369964,001,2024-10-10_18h44.00.537,visualsearch,2024.1.5,None,2024-10-10 18h44.07.375286 +0530,
155,0,155,0,271.58607340045273,,271.5505407000892,10,271.58607340045273,271.58607340045273,0.025788099970668554,273.2444367003627,[0.43],[0.013333333333333334],[1],[0],[0],[1.6684070001356304],['target'],369964,001,2024-10-10_18h44.00.537,visualsearch,2024.1.5,None,2024-10-10 18h44.07.375286 +0530,
156,0,156,0,273.28406410012394,,273.24720520013943,10,273.28406410012394,273.28406410012394,0.02385580027475953,274.4611190003343,[0.2833333333333333],[-0.275],[1],[0],[0],[1.1902617001906037],['target'],369964,001,2024-10-10_18h44.00.537,visualsearch,2024.1.5,None,2024-10-10 18h44.07.375286 +0530,
157,0,157,0,274.489588400349,,274.46511560026556,5,274.489588400349,274.489588400349,0.0123561997897923,276.12678180029616,[-0.42333333333333334],[0.245],[1],[0],[0],[1.6495349002070725],['target'],369964,001,2024-10-10_18h44.00.537,visualsearch,2024.1.5,None,2024-10-10 18h44.07.375286 +0530,
158,0,158,0,276.1554576000199,,276.12965790042654,5,276.1554576000199,276.1554576000199,0.012129899580031633,277.47642850037664,[0.051666666666666666],[0.23166666666666666],[1],[0],[0],[1.3347885999828577],['target'],369964,001,2024-10-10_18h44.00.537,visualsearch,2024.1.5,None,2024-10-10 18h44.07.375286 +0530,
159,0,159,0,277.522894800175,,277.4808799000457,10,277.522894800175,277.522894800175,0.029736299999058247,278.8087259000167,[0.2916666666666667],[0.37166666666666665],[1],[0],[0],[1.2988463998772204],['target'],369964,001,2024-10-10_18h44.00.537,visualsearch,2024.1.5,None,2024-10-10 18h44.07.375286 +0530,
160,0,160,0,278.837457400281,,278.8114767000079,5,278.837457400281,278.837457400281,0.015048699919134378,280.62459240015596,[0.041666666666666664],[0.0016666666666666668],[1],[0],[0],[1.798317200038582],['target'],369964,001,2024-10-10_18h44.00.537,visualsearch,2024.1.5,None,2024-10-10 18h44.07.375286 +0530,
161,0,161,0,280.6698195002973,,280.6287842001766,10,280.6698195002973,280.6698195002973,0.030813100282102823,302.5621892004274,[0.33666666666666667],[0.18333333333333332],[1],[0],[0],[21.90310350013897],['target'],369964,001,2024-10-10_18h44.00.537,visualsearch,2024.1.5,None,2024-10-10 18h44.07.375286 +0530,
162,0,162,0,302.59877640008926,,302.56495510041714,10,302.59877640008926,302.59877640008926,0.023173700086772442,303.729106800165,[0.19666666666666666],[0.33666666666666667],[1],[0],[0],[1.1411974998191],['target'],369964,001,2024-10-10_18h44.00.537,visualsearch,2024.1.5,None,2024-10-10 18h44.07.375286 +0530,
163,0,163,0,303.7657933002338,,303.73219260014594,10,303.7657933002338,303.7657933002338,0.02346409996971488,305.5950422002934,[-0.018333333333333333],[-0.47],[1],[0],[0],[1.8395953001454473],['target'],369964,001,2024-10-10_18h44.00.537,visualsearch,2024.1.5,None,2024-10-10 18h44.07.375286 +0530,
164,0,164,0,305.62386360019445,,305.5977448001504,5,305.62386360019445,305.62386360019445,0.012330399826169014,306.74373870017007,[-0.07833333333333334],[-0.45166666666666666],[1],[0],[0],[1.1338822999969125],['target'],369964,001,2024-10-10_18h44.00.537,visualsearch,2024.1.5,None,2024-10-10 18h44.07.375286 +0530,
165,0,165,0,306.7733214003965,,306.74664090014994,5,306.7733214003965,306.7733214003965,0.012604199815541506,308.076765100006,[0.0016666666666666668],[0.36],[1],[0],[0],[1.3177552996203303],['target'],369964,001,2024-10-10_18h44.00.537,visualsearch,2024.1.5,None,2024-10-10 18h44.07.375286 +0530,
166,0,166,0,308.1054542004131,,308.07957320008427,5,308.1054542004131,308.1054542004131,0.015712700318545103,309.4593314002268,[0.2816666666666667],[-0.08833333333333333],[1],[0],[0],[1.3643447998911142],['target'],369964,001,2024-10-10_18h44.00.537,visualsearch,2024.1.5,None,2024-10-10 18h44.07.375286 +0530,
167,0,167,0,309.4881215002388,,309.46203000005335,5,309.4881215002388,309.4881215002388,0.012265800032764673,310.72512520011514,[-0.22333333333333333],[-0.15333333333333332],[1],[0],[0],[1.2510485998354852],['target'],369964,001,2024-10-10_18h44.00.537,visualsearch,2024.1.5,None,2024-10-10 18h44.07.375286 +0530,
168,0,168,0,310.76606690045446,,310.7279533003457,10,310.76606690045446,310.76606690045446,0.027676000259816647,312.3399954000488,[0.11833333333333333],[-0.08333333333333333],[1],[0],[0],[1.5845953999087214],['target'],369964,001,2024-10-10_18h44.00.537,visualsearch,2024.1.5,None,2024-10-10 18h44.07.375286 +0530,
169,0,169,0,312.36983600025997,,312.34285030001774,5,312.36983600025997,312.36983600025997,0.013606300111860037,313.55685720033944,[-0.09333333333333334],[0.3466666666666667],[1],[0],[0],[1.2006521997973323],['target'],369964,001,2024-10-10_18h44.00.537,visualsearch,2024.1.5,None,2024-10-10 18h44.07.375286 +0530,
170,0,170,0,313.5975566999987,,313.5608553001657,10,313.5975566999987,313.5975566999987,0.02410340029746294,314.7395367003046,[0.165],[0.415],[1],[0],[0],[1.1547825001180172],['target'],369964,001,2024-10-10_18h44.00.537,visualsearch,2024.1.5,None,2024-10-10 18h44.07.375286 +0530,
171,0,171,0,314.77641610009596,,314.74242210015655,10,314.77641610009596,314.77641610009596,0.023298599757254124,316.1891020000912,[-0.19],[0.3883333333333333],[1],[0],[0],[1.4235644997097552],['target'],369964,001,2024-10-10_18h44.00.537,visualsearch,2024.1.5,None,2024-10-10 18h44.07.375286 +0530,
172,0,172,0,316.2177134002559,,316.1918645002879,5,316.2177134002559,316.2177134002559,0.012174800038337708,317.50514810020104,[0.285],[-0.3],[1],[0],[0],[1.3013687999919057],['target'],369964,001,2024-10-10_18h44.00.537,visualsearch,2024.1.5,None,2024-10-10 18h44.07.375286 +0530,
173,0,173,0,317.5337515003048,,317.5078323003836,5,317.5337515003048,317.5337515003048,0.01380509976297617,318.82030550017953,[-0.43333333333333335],[0.205],[1],[0],[0],[1.2988801999017596],['target'],369964,001,2024-10-10_18h44.00.537,visualsearch,2024.1.5,None,2024-10-10 18h44.07.375286 +0530,
174,0,174,0,318.859353300184,,318.8229106999934,10,318.859353300184,318.859353300184,0.024036599788814783,320.26954080024734,[0.175],[0.38666666666666666],[1],[0],[0],[1.4227991001680493],['target'],369964,001,2024-10-10_18h44.00.537,visualsearch,2024.1.5,None,2024-10-10 18h44.07.375286 +0530,
175,0,175,0,320.30557329999283,,320.2725618002005,10,320.30557329999283,320.30557329999283,0.022988700307905674,321.9856338002719,[0.4583333333333333],[0.09166666666666666],[1],[0],[0],[1.6902736998163164],['target'],369964,001,2024-10-10_18h44.00.537,visualsearch,2024.1.5,None,2024-10-10 18h44.07.375286 +0530,
176,0,176,0,322.0147143001668,,321.9885271000676,5,322.0147143001668,322.0147143001668,0.013871300034224987,323.0358365001157,[-0.15],[-0.11],[1],[0],[0],[1.033621999900788],['target'],369964,001,2024-10-10_18h44.00.537,visualsearch,2024.1.5,None,2024-10-10 18h44.07.375286 +0530,
177,0,177,0,323.07354110013694,,323.0385761000216,10,323.07354110013694,323.07354110013694,0.024760600179433823,324.36818640027195,[0.22166666666666668],[-0.055],[1],[0],[0],[1.3051230004057288],['target'],369964,001,2024-10-10_18h44.00.537,visualsearch,2024.1.5,None,2024-10-10 18h44.07.375286 +0530,
178,0,178,0,324.3966728001833,,324.3708524000831,5,324.3966728001833,324.3966728001833,0.011870899703353643,325.50063250027597,[0.285],[0.08],[1],[0],[0],[1.118110100273043],['target'],369964,001,2024-10-10_18h44.00.537,visualsearch,2024.1.5,None,2024-10-10 18h44.07.375286 +0530,
179,0,179,0,325.5422588000074,,325.5032931002788,10,325.5422588000074,325.5422588000074,0.027228000108152628,326.61605090042576,[-0.015],[-0.23833333333333334],[1],[0],[0],[1.085731899831444],['target'],369964,001,2024-10-10_18h44.00.537,visualsearch,2024.1.5,None,2024-10-10 18h44.07.375286 +0530,
180,0,180,0,326.6454264000058,,326.6187213002704,5,326.6454264000058,326.6454264000058,0.013130700215697289,327.8990585003048,[-0.11333333333333333],[0.085],[1],[0],[0],[1.2673899997025728],['target'],369964,001,2024-10-10_18h44.00.537,visualsearch,2024.1.5,None,2024-10-10 18h44.07.375286 +0530,
181,0,181,0,327.93600920028985,,327.9020676002838,10,327.93600920028985,327.93600920028985,0.022342400159686804,331.4634558004327,[0.135],[-0.355],[1],[0],[0],[3.539269699715078],['target'],369964,001,2024-10-10_18h44.00.537,visualsearch,2024.1.5,None,2024-10-10 18h44.07.375286 +0530,
182,0,182,0,331.4930331003852,,331.46620790008456,5,331.4930331003852,331.4930331003852,0.013964599929749966,332.8648718004115,[0.47833333333333333],[0.265],[1],[0],[0],[1.3848572000861168],['target'],369964,001,2024-10-10_18h44.00.537,visualsearch,2024.1.5,None,2024-10-10 18h44.07.375286 +0530,
183,0,183,0,332.89215339999646,,332.86757110012695,5,332.89215339999646,332.89215339999646,0.016177500132471323,334.0626852000132,[0.445],[0.29333333333333333],[1],[0],[0],[1.1792058004066348],['target'],369964,001,2024-10-10_18h44.00.537,visualsearch,2024.1.5,None,2024-10-10 18h44.07.375286 +0530,
184,0,184,0,334.09163650032133,,334.06698940042406,5,334.09163650032133,334.09163650032133,0.016057500150054693,335.32874650042504,[0.24166666666666667],[0.20666666666666667],[1],[0],[0],[1.2462518000975251],['target'],369964,001,2024-10-10_18h44.00.537,visualsearch,2024.1.5,None,2024-10-10 18h44.07.375286 +0530,
185,0,185,0,335.3577803000808,,335.33140240004286,5,335.3577803000808,335.3577803000808,0.012031400110572577,336.894390700385,[0.04],[-0.17833333333333334],[1],[0],[0],[1.5512093999423087],['target'],369964,001,2024-10-10_18h44.00.537,visualsearch,2024.1.5,None,2024-10-10 18h44.07.375286 +0530,
186,0,186,0,336.92345910007134,,336.8970125000924,5,336.92345910007134,336.92345910007134,0.012399899773299694,338.1116830999963,[0.105],[-0.36333333333333334],[1],[0],[0],[1.2024679998867214],['target'],369964,001,2024-10-10_18h44.00.537,visualsearch,2024.1.5,None,2024-10-10 18h44.07.375286 +0530,
187,0,187,0,338.13970670010895,,338.1159596000798,5,338.13970670010895,338.13970670010895,0.015903000254184008,339.19271540036425,[0.055],[-0.43666666666666665],[1],[0],[0],[1.0614825002849102],['target'],369964,001,2024-10-10_18h44.00.537,visualsearch,2024.1.5,None,2024-10-10 18h44.07.375286 +0530,
188,0,188,0,339.24323840020224,,339.1970066004433,10,339.24323840020224,339.24323840020224,0.03645110037177801,341.19168930035084,[-0.31833333333333336],[0.23666666666666666],[1],[0],[0],[1.9587832000106573],['target'],369964,001,2024-10-10_18h44.00.537,visualsearch,2024.1.5,None,2024-10-10 18h44.07.375286 +0530,
189,0,189,0,341.22774390038103,,341.1943654003553,10,341.22774390038103,341.22774390038103,0.02286020014435053,342.5910590002313,[0.3233333333333333],[0.24333333333333335],[1],[0],[0],[1.374071099795401],['target'],369964,001,2024-10-10_18h44.00.537,visualsearch,2024.1.5,None,2024-10-10 18h44.07.375286 +0530,
190,0,190,0,342.6204252000898,,342.59382270043716,5,342.6204252000898,342.6204252000898,0.01293970039114356,344.2078611003235,[0.195],[-0.2733333333333333],[1],[0],[0],[1.6013579000718892],['target'],369964,001,2024-10-10_18h44.00.537,visualsearch,2024.1.5,None,2024-10-10 18h44.07.375286 +0530,
191,0,191,0,344.2516984003596,,344.2113888002932,10,344.2516984003596,344.2516984003596,0.030340800061821938,345.85738150030375,[-0.19333333333333333],[0.245],[1],[0],[0],[1.615860499907285],['target'],369964,001,2024-10-10_18h44.00.537,visualsearch,2024.1.5,None,2024-10-10 18h44.07.375286 +0530,
192,0,192,0,345.8853487004526,,345.8608460002579,5,345.8853487004526,345.8853487004526,0.012897399719804525,347.4392518000677,[0.40166666666666667],[-0.43833333333333335],[1],[0],[0],[1.565884499810636],['target'],369964,001,2024-10-10_18h44.00.537,visualsearch,2024.1.5,None,2024-10-10 18h44.07.375286 +0530,
193,0,193,0,347.46800060011446,,347.4419880001806,5,347.46800060011446,347.46800060011446,0.013888400048017502,349.05613650009036,[-0.08666666666666667],[-0.14833333333333334],[1],[0],[0],[1.6004687999375165],['target'],369964,001,2024-10-10_18h44.00.537,visualsearch,2024.1.5,None,2024-10-10 18h44.07.375286 +0530,
194,0,194,0,349.09353650035337,,349.05929300002754,10,349.09353650035337,349.09353650035337,0.024114400148391724,350.8200604002923,[0.015],[0.24833333333333332],[1],[0],[0],[1.7369059999473393],['target'],369964,001,2024-10-10_18h44.00.537,visualsearch,2024.1.5,None,2024-10-10 18h44.07.375286 +0530,
195,0,195,0,350.8570348001085,,350.82289870036766,10,350.8570348001085,350.8570348001085,0.023870499804615974,352.10282830009237,[-0.33],[0.018333333333333333],[1],[0],[0],[1.2563426000997424],['target'],369964,001,2024-10-10_18h44.00.537,visualsearch,2024.1.5,None,2024-10-10 18h44.07.375286 +0530,
196,0,196,0,352.13215210009366,,352.1054587000981,5,352.13215210009366,352.13215210009366,0.012727199587970972,353.4364109002054,[-0.125],[-0.405],[1],[0],[0],[1.3184372996911407],['target'],369964,001,2024-10-10_18h44.00.537,visualsearch,2024.1.5,None,2024-10-10 18h44.07.375286 +0530,
197,0,197,0,353.4648936004378,,353.43946360005066,5,353.4648936004378,353.4648936004378,0.013328900095075369,354.38556840037927,[-0.18666666666666668],[-0.405],[1],[0],[0],[0.9331257999874651],['target'],369964,001,2024-10-10_18h44.00.537,visualsearch,2024.1.5,None,2024-10-10 18h44.07.375286 +0530,
198,0,198,0,354.4142479002476,,354.38832160038874,5,354.4142479002476,354.4142479002476,0.013995799701660872,355.6016133003868,[-0.345],[-0.275],[1],[0],[0],[1.1995772998780012],['target'],369964,001,2024-10-10_18h44.00.537,visualsearch,2024.1.5,None,2024-10-10 18h44.07.375286 +0530,
199,0,199,0,355.64066170016304,,355.6042390000075,10,355.64066170016304,355.64066170016304,0.025651500094681978,356.6832497003488,[-0.37833333333333335],[-0.29],[1],[0],[0],[1.0535876997746527],['target'],369964,001,2024-10-10_18h44.00.537,visualsearch,2024.1.5,None,2024-10-10 18h44.07.375286 +0530,
