study_word,thisN,thisTrialN,thisRepN,slider.response,slider.rt,test_words,Reference,old_new,textbox.text,mouse.x,mouse.y,mouse.leftButton,mouse.midButton,mouse.rightButton,mouse.time,mouse.clicked_name,trials.thisRepN,trials.thisTrialN,trials.thisN,trials.thisIndex,trials_2.thisRepN,trials_2.thisTrialN,trials_2.thisN,trials_2.thisIndex,thisRow.t,notes,trial.started,text.started,slider.started,trial.stopped,trials.slider.response,trials.slider.rt,test.started,text_2.started,textbox.started,text_3.started,mouse.started,test.stopped,trials_2.textbox.text,trials_2.mouse.x,trials_2.mouse.y,trials_2.mouse.leftButton,trials_2.mouse.midButton,trials_2.mouse.rightButton,trials_2.mouse.time,trials_2.mouse.clicked_name,participant,session,date,expName,psychopyVersion,frameRate,expStart
,,,,,,,,,,,,,,,,,0,0,0,1,,,,,0.0716982,,0.0387223,0.0716982,0.0716982,4.2743008,1,4.2184145,,,,,,,,,,,,,,,649607,1,2024-11-06_18h31.16.712,WORD PRIMING,2024.2.1post4,60.05389234,2024-11-06 18h31.23.183081 +0530
,,,,,,,,,,,,,,,,,0,1,1,10,,,,,4.3014238,,4.2801546,4.3014238,4.3014238,5.3714011,1,1.0755573,,,,,,,,,,,,,,,649607,1,2024-11-06_18h31.16.712,WORD PRIMING,2024.2.1post4,60.05389234,2024-11-06 18h31.23.183081 +0530
,,,,,,,,,,,,,,,,,0,2,2,4,,,,,5.4000638,,5.3771109,5.4000638,5.4000638,6.556486,1,1.1465797,,,,,,,,,,,,,,,649607,1,2024-11-06_18h31.16.712,WORD PRIMING,2024.2.1post4,60.05389234,2024-11-06 18h31.23.183081 +0530
,,,,,,,,,,,,,,,,,0,3,3,13,,,,,6.5821926,,6.5629373,6.5821926,6.5821926,7.4541388,1,0.8738582,,,,,,,,,,,,,,,649607,1,2024-11-06_18h31.16.712,WORD PRIMING,2024.2.1post4,60.05389234,2024-11-06 18h31.23.183081 +0530
,,,,,,,,,,,,,,,,,0,4,4,12,,,,,7.4812819,,7.4589822,7.4812819,7.4812819,8.4368705,1,0.945787,,,,,,,,,,,,,,,649607,1,2024-11-06_18h31.16.712,WORD PRIMING,2024.2.1post4,60.05389234,2024-11-06 18h31.23.183081 +0530
,,,,,,,,,,,,,,,,,0,5,5,7,,,,,8.4638238,,8.4441208,8.4638238,8.4638238,9.4179327,1,0.9581159,,,,,,,,,,,,,,,649607,1,2024-11-06_18h31.16.712,WORD PRIMING,2024.2.1post4,60.05389234,2024-11-06 18h31.23.183081 +0530
,,,,,,,,,,,,,,,,,0,6,6,5,,,,,9.4465716,,9.4215073,9.4465716,9.4465716,10.3665777,1,0.9302037,,,,,,,,,,,,,,,649607,1,2024-11-06_18h31.16.712,WORD PRIMING,2024.2.1post4,60.05389234,2024-11-06 18h31.23.183081 +0530
,,,,,,,,,,,,,,,,,0,7,7,2,,,,,10.3956362,,10.3714263,10.3956362,10.3956362,11.1847757,1,0.7814264,,,,,,,,,,,,,,,649607,1,2024-11-06_18h31.16.712,WORD PRIMING,2024.2.1post4,60.05389234,2024-11-06 18h31.23.183081 +0530
,,,,,,,,,,,,,,,,,0,8,8,3,,,,,11.2116811,,11.1899316,11.2116811,11.2116811,11.9484306,1,0.7431734,,,,,,,,,,,,,,,649607,1,2024-11-06_18h31.16.712,WORD PRIMING,2024.2.1post4,60.05389234,2024-11-06 18h31.23.183081 +0530
,,,,,,,,,,,,,,,,,0,9,9,14,,,,,11.9770936,,11.9520635,11.9770936,11.9770936,12.7975047,1,0.8292002,,,,,,,,,,,,,,,649607,1,2024-11-06_18h31.16.712,WORD PRIMING,2024.2.1post4,60.05389234,2024-11-06 18h31.23.183081 +0530
,,,,,,,,,,,,,,,,,0,10,10,8,,,,,12.8263072,,12.800385,12.8263072,12.8263072,13.6981505,1,0.8664259,,,,,,,,,,,,,,,649607,1,2024-11-06_18h31.16.712,WORD PRIMING,2024.2.1post4,60.05389234,2024-11-06 18h31.23.183081 +0530
,,,,,,,,,,,,,,,,,0,11,11,0,,,,,13.7255036,,13.7029485,13.7255036,13.7255036,14.4805615,1,0.7629023,,,,,,,,,,,,,,,649607,1,2024-11-06_18h31.16.712,WORD PRIMING,2024.2.1post4,60.05389234,2024-11-06 18h31.23.183081 +0530
,,,,,,,,,,,,,,,,,0,12,12,9,,,,,14.5083008,,14.4839285,14.5083008,14.5083008,15.3960916,1,0.8813051,,,,,,,,,,,,,,,649607,1,2024-11-06_18h31.16.712,WORD PRIMING,2024.2.1post4,60.05389234,2024-11-06 18h31.23.183081 +0530
,,,,,,,,,,,,,,,,,0,13,13,6,,,,,15.4244924,,15.3991008,15.4244924,15.4244924,16.2136336,1,0.7959884,,,,,,,,,,,,,,,649607,1,2024-11-06_18h31.16.712,WORD PRIMING,2024.2.1post4,60.05389234,2024-11-06 18h31.23.183081 +0530
,,,,,,,,,,,,,,,,,0,14,14,11,,,,,16.2400918,,16.2187305,16.2400918,16.2400918,16.9938548,1,0.7590552,,,,,,,,,,,,,,,649607,1,2024-11-06_18h31.16.712,WORD PRIMING,2024.2.1post4,60.05389234,2024-11-06 18h31.23.183081 +0530
,0,0,0,,,_o_rd,board,old,board,[0.08166666666666667],[-0.295],[1],[0],[0],[5.8128829000052065],['text_3'],,,,,0,0,0,10,17.0396327,,,,,,,,17.009608,17.0396327,17.0396327,17.0396327,0.0157649,22.8231728,board,[0.08166666666666667],[-0.295],[1],[0],[0],[5.8128829000052065],['text_3'],649607,1,2024-11-06_18h31.16.712,WORD PRIMING,2024.2.1post4,60.05389234,2024-11-06 18h31.23.183081 +0530
,1,1,0,,,None,camera,new,board,[0.08166666666666667],[-0.295],[1],[0],[0],[4.525174299953505],['text_3'],,,,,0,1,1,19,22.8508174,,,,,,,,22.8277522,22.8508174,22.8508174,22.8508174,0.0044116,27.3537411,board,[0.08166666666666667],[-0.295],[1],[0],[0],[4.525174299953505],['text_3'],649607,1,2024-11-06_18h31.16.712,WORD PRIMING,2024.2.1post4,60.05389234,2024-11-06 18h31.23.183081 +0530
,2,2,0,,,l_pt_p,Laptop,old,laptop,[0.08166666666666667],[-0.295],[1],[0],[0],[3.1914323999080807],['text_3'],,,,,0,2,2,0,27.3798137,,,,,,,,27.3567026,27.3798137,27.3798137,27.3798137,0.0028861,30.5488448,laptop,[0.08166666666666667],[-0.295],[1],[0],[0],[3.1914323999080807],['text_3'],649607,1,2024-11-06_18h31.16.712,WORD PRIMING,2024.2.1post4,60.05389234,2024-11-06 18h31.23.183081 +0530
,3,3,0,,,k_y_,keys,old,keys,[0.08166666666666667],[-0.295],[1],[0],[0],[2.4787693000398576],['text_3'],,,,,0,3,3,8,30.5775758,,,,,,,,30.5514618,30.5775758,30.5775758,30.5775758,0.0025075,33.0309866,keys,[0.08166666666666667],[-0.295],[1],[0],[0],[2.4787693000398576],['text_3'],649607,1,2024-11-06_18h31.16.712,WORD PRIMING,2024.2.1post4,60.05389234,2024-11-06 18h31.23.183081 +0530
,4,4,0,,,c_s_io_,cushion,old,cushion,[0.08166666666666667],[-0.295],[1],[0],[0],[3.774930499959737],['text_3'],,,,,0,4,4,14,33.057602,,,,,,,,33.0353889,33.057602,33.057602,33.057602,0.0042247,36.8111882,cushion,[0.08166666666666667],[-0.295],[1],[0],[0],[3.774930499959737],['text_3'],649607,1,2024-11-06_18h31.16.712,WORD PRIMING,2024.2.1post4,60.05389234,2024-11-06 18h31.23.183081 +0530
,5,5,0,,,_ho_e,phone,old,shove,[0.08166666666666667],[-0.295],[1],[0],[0],[7.688946799840778],['text_3'],,,,,0,5,5,12,36.8378859,,,,,,,,36.815678,36.8378859,36.8378859,36.8378859,0.004288,44.5054993,shove,[0.08166666666666667],[-0.295],[1],[0],[0],[7.688946799840778],['text_3'],649607,1,2024-11-06_18h31.16.712,WORD PRIMING,2024.2.1post4,60.05389234,2024-11-06 18h31.23.183081 +0530
,6,6,0,,,_ru_is,cruise,pld,cruise,[0.08166666666666667],[-0.295],[1],[0],[0],[3.256561200134456],['text_3'],,,,,0,6,6,6,44.5310731,,,,,,,,44.5103067,44.5310731,44.5310731,44.5310731,0.0045987,47.7677414,cruise,[0.08166666666666667],[-0.295],[1],[0],[0],[3.256561200134456],['text_3'],649607,1,2024-11-06_18h31.16.712,WORD PRIMING,2024.2.1post4,60.05389234,2024-11-06 18h31.23.183081 +0530
,7,7,0,,,c_s_,case,old,case,[0.08166666666666667],[-0.295],[1],[0],[0],[3.7088127001188695],['text_3'],,,,,0,7,7,5,47.7943281,,,,,,,,47.7720736,47.7943281,47.7943281,47.7943281,0.0041349,51.4817306,case,[0.08166666666666667],[-0.295],[1],[0],[0],[3.7088127001188695],['text_3'],649607,1,2024-11-06_18h31.16.712,WORD PRIMING,2024.2.1post4,60.05389234,2024-11-06 18h31.23.183081 +0530
,8,8,0,,,p_st_r,poster,old,poster,[0.08166666666666667],[-0.295],[1],[0],[0],[3.9572352999821305],['text_3'],,,,,0,8,8,9,51.507671,,,,,,,,51.4862102,51.507671,51.507671,51.507671,0.0043343,55.4441071,poster,[0.08166666666666667],[-0.295],[1],[0],[0],[3.9572352999821305],['text_3'],649607,1,2024-11-06_18h31.16.712,WORD PRIMING,2024.2.1post4,60.05389234,2024-11-06 18h31.23.183081 +0530
,9,9,0,,,t_hi_t,Tshirts,old,t,[],[],[],[],[],[],[],,,,,0,9,9,2,55.4706508,,,,,,,,55.4472775,55.4706508,55.4706508,55.4706508,0.0030713,65.4485334,t,[],[],[],[],[],[],[],649607,1,2024-11-06_18h31.16.712,WORD PRIMING,2024.2.1post4,60.05389234,2024-11-06 18h31.23.183081 +0530
,10,10,0,,,p_li_e,police,old,#NAME?,"[-0.06666666666666667, -0.02666666666666667]","[-0.005, -0.30666666666666664]","[1, 1]","[0, 0]","[0, 0]","[4.578959399834275, 5.760002499911934]","[None, 'text_3']",,,,,0,10,10,7,65.4779603,,,,,,,,65.451799,65.4779603,65.4779603,65.4779603,0.0076223,71.2126883,#NAME?,"[-0.06666666666666667, -0.02666666666666667]","[-0.005, -0.30666666666666664]","[1, 1]","[0, 0]","[0, 0]","[4.578959399834275, 5.760002499911934]","[None, 'text_3']",649607,1,2024-11-06_18h31.16.712,WORD PRIMING,2024.2.1post4,60.05389234,2024-11-06 18h31.23.183081 +0530
,11,11,0,,,_ou_se,mouse,old,mouse,[-0.02666666666666667],[-0.30666666666666664],[1],[0],[0],[7.8030597001779824],['text_3'],,,,,0,11,11,3,71.2397508,,,,,,,,71.2172446,71.2397508,71.2397508,71.2397508,0.0043735,79.0210521,mouse,[-0.02666666666666667],[-0.30666666666666664],[1],[0],[0],[7.8030597001779824],['text_3'],649607,1,2024-11-06_18h31.16.712,WORD PRIMING,2024.2.1post4,60.05389234,2024-11-06 18h31.23.183081 +0530
,12,12,0,,,p_as_tr_,pastry,old,pastry,[-0.02666666666666667],[-0.30666666666666664],[1],[0],[0],[4.075544799910858],['text_3'],,,,,0,12,12,4,79.048288,,,,,,,,79.0240669,79.048288,79.048288,79.048288,0.0029101,83.1003201,pastry,[-0.02666666666666667],[-0.30666666666666664],[1],[0],[0],[4.075544799910858],['text_3'],649607,1,2024-11-06_18h31.16.712,WORD PRIMING,2024.2.1post4,60.05389234,2024-11-06 18h31.23.183081 +0530
,13,13,0,,,_ha_t,Chart,old,that,[-0.02666666666666667],[-0.30666666666666664],[1],[0],[0],[7.173210399923846],['text_3'],,,,,0,13,13,1,83.128549,,,,,,,,83.1030554,83.128549,83.128549,83.128549,0.0026353,90.2769221,that,[-0.02666666666666667],[-0.30666666666666664],[1],[0],[0],[7.173210399923846],['text_3'],649607,1,2024-11-06_18h31.16.712,WORD PRIMING,2024.2.1post4,60.05389234,2024-11-06 18h31.23.183081 +0530
,14,14,0,,,_a_bl_,marble,old,marble,[-0.02666666666666667],[-0.30666666666666664],[1],[0],[0],[5.058165499940515],['text_3'],,,,,0,14,14,11,90.3055954,,,,,,,,90.2799142,90.3055954,90.3055954,90.3055954,0.0028895,95.3387723,marble,[-0.02666666666666667],[-0.30666666666666664],[1],[0],[0],[5.058165499940515],['text_3'],649607,1,2024-11-06_18h31.16.712,WORD PRIMING,2024.2.1post4,60.05389234,2024-11-06 18h31.23.183081 +0530
,15,15,0,,,_oo_,book,old,book,[-0.02666666666666667],[-0.30666666666666664],[1],[0],[0],[3.49523609993048],['text_3'],,,,,0,15,15,13,95.3668244,,,,,,,,95.3418947,95.3668244,95.3668244,95.3668244,0.0030523,98.8381803,book,[-0.02666666666666667],[-0.30666666666666664],[1],[0],[0],[3.49523609993048],['text_3'],649607,1,2024-11-06_18h31.16.712,WORD PRIMING,2024.2.1post4,60.05389234,2024-11-06 18h31.23.183081 +0530
,16,16,0,,,bo_t_e,bottle,new,bottle,[-0.02666666666666667],[-0.30666666666666664],[1],[0],[0],[3.4567503000143915],['text_3'],,,,,0,16,16,18,98.8635924,,,,,,,,98.8430239,98.8635924,98.8635924,98.8635924,0.004538,102.3006208,bottle,[-0.02666666666666667],[-0.30666666666666664],[1],[0],[0],[3.4567503000143915],['text_3'],649607,1,2024-11-06_18h31.16.712,WORD PRIMING,2024.2.1post4,60.05389234,2024-11-06 18h31.23.183081 +0530
,17,17,0,,,p_nc_l,pencil,new,pencil,[-0.02666666666666667],[-0.30666666666666664],[1],[0],[0],[2.838486400200054],['text_3'],,,,,0,17,17,16,102.3263267,,,,,,,,102.3054482,102.3263267,102.3263267,102.3263267,0.004676,105.1447197,pencil,[-0.02666666666666667],[-0.30666666666666664],[1],[0],[0],[2.838486400200054],['text_3'],649607,1,2024-11-06_18h31.16.712,WORD PRIMING,2024.2.1post4,60.05389234,2024-11-06 18h31.23.183081 +0530
,18,18,0,,,ta_l_,table,new,talks,[-0.02666666666666667],[-0.30666666666666664],[1],[0],[0],[6.608431100146845],['text_3'],,,,,0,18,18,15,105.1735469,,,,,,,,105.1481427,105.1735469,105.1735469,105.1735469,0.0033083,111.7573834,talks,[-0.02666666666666667],[-0.30666666666666664],[1],[0],[0],[6.608431100146845],['text_3'],649607,1,2024-11-06_18h31.16.712,WORD PRIMING,2024.2.1post4,60.05389234,2024-11-06 18h31.23.183081 +0530
,19,19,0,,,v_s_,vase,new,vase,[-0.02666666666666667],[-0.30666666666666664],[1],[0],[0],[2.855954100145027],['text_3'],,,,,0,19,19,17,111.7838436,,,,,,,,111.7631162,111.7838436,111.7838436,111.7838436,0.0056534,114.6199086,vase,[-0.02666666666666667],[-0.30666666666666664],[1],[0],[0],[2.855954100145027],['text_3'],649607,1,2024-11-06_18h31.16.712,WORD PRIMING,2024.2.1post4,60.05389234,2024-11-06 18h31.23.183081 +0530
,,,,,,,,,,,,,,,,,,,,,,,,,,,,,,,,,,,,,,,,,,,,,,,,,,,,,
,,,,,prop hit from study list,18,0.9,,,,,,,,,,,,,,,,,,,,,,,,,,,,,,,,,,,,,,,,,,,,,,
,,,,,prop hit from non study list,3,0.15,,,,,,,,,,,,,,,,,,,,,,,,,,,,,,,,,,,,,,,,,,,,,,
,,,,,,,,,,,,,,,,,,,,,,,,,,,,,,,,,,,,,,,,,,,,,,,,,,,,,
,,,,,,,,,,,,,,,,,,,,,,,,,,,,,,,,,,,,,,,,,,,,,,,,,,,,,
,,,,,priming score ,0.75,,,,,,,,,,,,,,,,,,,,,,,,,,,,,,,,,,,,,,,,,,,,,,,
