study_word,thisN,thisTrialN,thisRepN,slider.response,slider.rt,test_words,Reference,old_new,textbox.text,mouse.x,mouse.y,mouse.leftButton,mouse.midButton,mouse.rightButton,mouse.time,mouse.clicked_name,trials.thisRepN,trials.thisTrialN,trials.thisN,trials.thisIndex,trials_2.thisRepN,trials_2.thisTrialN,trials_2.thisN,trials_2.thisIndex,thisRow.t,notes,trial.started,text.started,slider.started,trial.stopped,trials.slider.response,trials.slider.rt,test.started,text_2.started,textbox.started,text_3.started,mouse.started,test.stopped,trials_2.textbox.text,trials_2.mouse.x,trials_2.mouse.y,trials_2.mouse.leftButton,trials_2.mouse.midButton,trials_2.mouse.rightButton,trials_2.mouse.time,trials_2.mouse.clicked_name,participant,session,date,expName,psychopyVersion,frameRate,expStart,
book,0,0,0,1,2.136263799853623,,,,,,,,,,,,0,0,0,0,,,,,0.0568552000913769,,0.024130600038915873,0.0568552000913769,0.0568552000913769,2.1792763001285493,1,2.136263799853623,,,,,,,,,,,,,,,345202,001,2024-11-06_18h33.43.396,WORD PRIMING,2024.2.1post4,59.83881813034475,2024-11-06 18h33.51.591385 +0530,
chart,1,1,0,1,0.8866432001814246,,,,,,,,,,,,0,1,1,6,,,,,2.2045199000276625,,2.189499800093472,2.2045199000276625,2.2045199000276625,3.0912552000954747,1,0.8866432001814246,,,,,,,,,,,,,,,345202,001,2024-11-06_18h33.43.396,WORD PRIMING,2024.2.1post4,59.83881813034475,2024-11-06 18h33.51.591385 +0530,
keys,2,2,0,1,0.6792556000873446,,,,,,,,,,,,0,2,2,13,,,,,3.1201801002025604,,3.0965874001849443,3.1201801002025604,3.1201801002025604,3.807909600203857,1,0.6792556000873446,,,,,,,,,,,,,,,345202,001,2024-11-06_18h33.43.396,WORD PRIMING,2024.2.1post4,59.83881813034475,2024-11-06 18h33.51.591385 +0530,
police,3,3,0,1,0.5811576000414789,,,,,,,,,,,,0,3,3,12,,,,,3.8367506000213325,,3.813016400206834,3.8367506000213325,3.8367506000213325,4.423043800052255,1,0.5811576000414789,,,,,,,,,,,,,,,345202,001,2024-11-06_18h33.43.396,WORD PRIMING,2024.2.1post4,59.83881813034475,2024-11-06 18h33.51.591385 +0530,
t-shirt,4,4,0,1,0.48021199996583164,,,,,,,,,,,,0,4,4,7,,,,,4.452537200180814,,4.4276861001271755,4.452537200180814,4.452537200180814,4.923655900172889,1,0.48021199996583164,,,,,,,,,,,,,,,345202,001,2024-11-06_18h33.43.396,WORD PRIMING,2024.2.1post4,59.83881813034475,2024-11-06 18h33.51.591385 +0530,
pastry,5,5,0,1,0.5340584998484701,,,,,,,,,,,,0,5,5,9,,,,,5.00217520003207,,4.988846100168303,5.00217520003207,5.00217520003207,5.5554940002039075,1,0.5340584998484701,,,,,,,,,,,,,,,345202,001,2024-11-06_18h33.43.396,WORD PRIMING,2024.2.1post4,59.83881813034475,2024-11-06 18h33.51.591385 +0530,
cruise,6,6,0,1,0.4654264999553561,,,,,,,,,,,,0,6,6,11,,,,,5.584970900090411,,5.559905000030994,5.584970900090411,5.584970900090411,6.038665700005367,1,0.4654264999553561,,,,,,,,,,,,,,,345202,001,2024-11-06_18h33.43.396,WORD PRIMING,2024.2.1post4,59.83881813034475,2024-11-06 18h33.51.591385 +0530,
cushion,7,7,0,1,0.5975256999954581,,,,,,,,,,,,0,7,7,1,,,,,6.067866000114009,,6.044035200029612,6.067866000114009,6.067866000114009,6.675336000043899,1,0.5975256999954581,,,,,,,,,,,,,,,345202,001,2024-11-06_18h33.43.396,WORD PRIMING,2024.2.1post4,59.83881813034475,2024-11-06 18h33.51.591385 +0530,
case,8,8,0,1,0.4428559001535177,,,,,,,,,,,,0,8,8,10,,,,,6.700744500150904,,6.681107500102371,6.700744500150904,6.700744500150904,7.154105900088325,1,0.4428559001535177,,,,,,,,,,,,,,,345202,001,2024-11-06_18h33.43.396,WORD PRIMING,2024.2.1post4,59.83881813034475,2024-11-06 18h33.51.591385 +0530,
marble,9,9,0,1,0.5809583999216557,,,,,,,,,,,,0,9,9,3,,,,,7.183074800064787,,7.157130200183019,7.183074800064787,7.183074800064787,7.756470000138506,1,0.5809583999216557,,,,,,,,,,,,,,,345202,001,2024-11-06_18h33.43.396,WORD PRIMING,2024.2.1post4,59.83881813034475,2024-11-06 18h33.51.591385 +0530,
phone,10,10,0,1,0.5757790999487042,,,,,,,,,,,,0,10,10,2,,,,,7.783275400055572,,7.76140690012835,7.783275400055572,7.783275400055572,8.353253900073469,1,0.5757790999487042,,,,,,,,,,,,,,,345202,001,2024-11-06_18h33.43.396,WORD PRIMING,2024.2.1post4,59.83881813034475,2024-11-06 18h33.51.591385 +0530,
laptop,11,11,0,1,0.8157987000886351,,,,,,,,,,,,0,11,11,5,,,,,8.382056800182909,,8.356682500103489,8.382056800182909,8.382056800182909,9.205365000059828,1,0.8157987000886351,,,,,,,,,,,,,,,345202,001,2024-11-06_18h33.43.396,WORD PRIMING,2024.2.1post4,59.83881813034475,2024-11-06 18h33.51.591385 +0530,
mouse,12,12,0,1,0.6606408997904509,,,,,,,,,,,,0,12,12,8,,,,,9.231131300097331,,9.210677500115708,9.231131300097331,9.231131300097331,9.904401500010863,1,0.6606408997904509,,,,,,,,,,,,,,,345202,001,2024-11-06_18h33.43.396,WORD PRIMING,2024.2.1post4,59.83881813034475,2024-11-06 18h33.51.591385 +0530,
poster,13,13,0,1,0.6628028999548405,,,,,,,,,,,,0,13,13,14,,,,,9.930815500207245,,9.90932140010409,9.930815500207245,9.930815500207245,10.603662200039253,1,0.6628028999548405,,,,,,,,,,,,,,,345202,001,2024-11-06_18h33.43.396,WORD PRIMING,2024.2.1post4,59.83881813034475,2024-11-06 18h33.51.591385 +0530,
board,14,14,0,1,0.6255524998996407,,,,,,,,,,,,0,14,14,4,,,,,10.630056700203568,,10.612393000163138,10.630056700203568,10.630056700203568,11.269488300196826,1,0.6255524998996407,,,,,,,,,,,,,,,345202,001,2024-11-06_18h33.43.396,WORD PRIMING,2024.2.1post4,59.83881813034475,2024-11-06 18h33.51.591385 +0530,
,0,0,0,,,k_y_,keys,old,keys,[-0.008333333333333333],[-0.29],[1],[0],[0],[4.222576700150967],['text_3'],,,,,0,0,0,8,11.330104900058359,,,,,,,,11.292497500078753,11.330104900058359,11.330104900058359,11.330104900058359,0.023021699860692024,15.515768800163642,keys,[-0.008333333333333333],[-0.29],[1],[0],[0],[4.222576700150967],['text_3'],345202,001,2024-11-06_18h33.43.396,WORD PRIMING,2024.2.1post4,59.83881813034475,2024-11-06 18h33.51.591385 +0530,
,1,1,0,,,p_li_e,police,old,police,[-0.008333333333333333],[-0.29],[1],[0],[0],[4.092717399820685],['text_3'],,,,,0,1,1,7,15.542867200216278,,,,,,,,15.519454600056633,15.542867200216278,15.542867200216278,15.542867200216278,0.0035959999077022076,19.612986900145188,police,[-0.008333333333333333],[-0.29],[1],[0],[0],[4.092717399820685],['text_3'],345202,001,2024-11-06_18h33.43.396,WORD PRIMING,2024.2.1post4,59.83881813034475,2024-11-06 18h33.51.591385 +0530,
,2,2,0,,,_a_bl_,marble,old,marble,[-0.008333333333333333],[-0.29],[1],[0],[0],[4.99053329997696],['text_3'],,,,,0,2,2,11,19.639098700135946,,,,,,,,19.6174633000046,19.639098700135946,19.639098700135946,19.639098700135946,0.004276599967852235,24.608823500107974,marble,[-0.008333333333333333],[-0.29],[1],[0],[0],[4.99053329997696],['text_3'],345202,001,2024-11-06_18h33.43.396,WORD PRIMING,2024.2.1post4,59.83881813034475,2024-11-06 18h33.51.591385 +0530,
,3,3,0,,,_oo_,book,old,cook,[-0.008333333333333333],[-0.29],[1],[0],[0],[2.6234599999152124],['text_3'],,,,,0,3,3,13,24.634623700054362,,,,,,,,24.613382400013506,24.634623700054362,24.634623700054362,24.634623700054362,0.004370700102299452,27.237547300057486,cook,[-0.008333333333333333],[-0.29],[1],[0],[0],[2.6234599999152124],['text_3'],345202,001,2024-11-06_18h33.43.396,WORD PRIMING,2024.2.1post4,59.83881813034475,2024-11-06 18h33.51.591385 +0530,
,4,4,0,,,_ou_se,mouse,old,mouse,[-0.008333333333333333],[-0.29],[1],[0],[0],[8.94022689992562],['text_3'],,,,,0,4,4,3,27.265139000024647,,,,,,,,27.240397300105542,27.265139000024647,27.265139000024647,27.265139000024647,0.002741399919614196,36.18145650019869,mouse,[-0.008333333333333333],[-0.29],[1],[0],[0],[8.94022689992562],['text_3'],345202,001,2024-11-06_18h33.43.396,WORD PRIMING,2024.2.1post4,59.83881813034475,2024-11-06 18h33.51.591385 +0530,
,5,5,0,,,_ru_is,cruise,pld,cruise,[-0.008333333333333333],[-0.29],[1],[0],[0],[3.3916444999631494],['text_3'],,,,,0,5,5,6,36.2068740001414,,,,,,,,36.18573190015741,36.2068740001414,36.2068740001414,36.2068740001414,0.0041028999257832766,39.57815519999713,cruise,[-0.008333333333333333],[-0.29],[1],[0],[0],[3.3916444999631494],['text_3'],345202,001,2024-11-06_18h33.43.396,WORD PRIMING,2024.2.1post4,59.83881813034475,2024-11-06 18h33.51.591385 +0530,
,6,6,0,,,_ho_e,phone,old,shove,[-0.008333333333333333],[-0.29],[1],[0],[0],[4.706871300004423],['text_3'],,,,,0,6,6,12,39.6043169000186,,,,,,,,39.5810202001594,39.6043169000186,39.6043169000186,39.6043169000186,0.002745900070294738,44.288744000019506,shove,[-0.008333333333333333],[-0.29],[1],[0],[0],[4.706871300004423],['text_3'],345202,001,2024-11-06_18h33.43.396,WORD PRIMING,2024.2.1post4,59.83881813034475,2024-11-06 18h33.51.591385 +0530,
,7,7,0,,,ta_l_,table,new,talks,[-0.008333333333333333],[-0.29],[1],[0],[0],[3.076029699994251],['text_3'],,,,,0,7,7,15,44.31569860014133,,,,,,,,44.29256250010803,44.31569860014133,44.31569860014133,44.31569860014133,0.003575199982151389,47.369382300181314,talks,[-0.008333333333333333],[-0.29],[1],[0],[0],[3.076029699994251],['text_3'],345202,001,2024-11-06_18h33.43.396,WORD PRIMING,2024.2.1post4,59.83881813034475,2024-11-06 18h33.51.591385 +0530,
,8,8,0,,,c_s_,case,old,case,[-0.008333333333333333],[-0.29],[1],[0],[0],[3.0921757000032812],['text_3'],,,,,0,8,8,5,47.396067399997264,,,,,,,,47.37334739998914,47.396067399997264,47.396067399997264,47.396067399997264,0.003783399937674403,50.46621940005571,case,[-0.008333333333333333],[-0.29],[1],[0],[0],[3.0921757000032812],['text_3'],345202,001,2024-11-06_18h33.43.396,WORD PRIMING,2024.2.1post4,59.83881813034475,2024-11-06 18h33.51.591385 +0530,
,9,9,0,,,c_s_io_,cushion,old,cushion,[-0.008333333333333333],[-0.29],[1],[0],[0],[3.195595599943772],['text_3'],,,,,0,9,9,14,50.49310710001737,,,,,,,,50.46898500015959,50.49310710001737,50.49310710001737,50.49310710001737,0.002661899896338582,53.665397700155154,cushion,[-0.008333333333333333],[-0.29],[1],[0],[0],[3.195595599943772],['text_3'],345202,001,2024-11-06_18h33.43.396,WORD PRIMING,2024.2.1post4,59.83881813034475,2024-11-06 18h33.51.591385 +0530,
,10,10,0,,,p_as_tr_,pastry,old,pastry,[-0.008333333333333333],[-0.29],[1],[0],[0],[3.4725975999608636],['text_3'],,,,,0,10,10,4,53.68991690012626,,,,,,,,53.67094750003889,53.68991690012626,53.68991690012626,53.68991690012626,0.005345500074326992,57.14442320005037,pastry,[-0.008333333333333333],[-0.29],[1],[0],[0],[3.4725975999608636],['text_3'],345202,001,2024-11-06_18h33.43.396,WORD PRIMING,2024.2.1post4,59.83881813034475,2024-11-06 18h33.51.591385 +0530,
,11,11,0,,,t_hi_t,Tshirts,old,that,[-0.008333333333333333],[-0.29],[1],[0],[0],[8.702968899859115],['text_3'],,,,,0,11,11,2,57.17043420020491,,,,,,,,57.14703260012902,57.17043420020491,57.17043420020491,57.17043420020491,0.0025031999684870243,65.85065890010446,that,[-0.008333333333333333],[-0.29],[1],[0],[0],[8.702968899859115],['text_3'],345202,001,2024-11-06_18h33.43.396,WORD PRIMING,2024.2.1post4,59.83881813034475,2024-11-06 18h33.51.591385 +0530,
,12,12,0,,,_o_rd,board,old,board,[-0.008333333333333333],[-0.29],[1],[0],[0],[4.628078600158915],['text_3'],,,,,0,12,12,10,65.87858650018461,,,,,,,,65.85363560006954,65.87858650018461,65.87858650018461,65.87858650018461,0.002891899785026908,70.48233090015128,board,[-0.008333333333333333],[-0.29],[1],[0],[0],[4.628078600158915],['text_3'],345202,001,2024-11-06_18h33.43.396,WORD PRIMING,2024.2.1post4,59.83881813034475,2024-11-06 18h33.51.591385 +0530,
,13,13,0,,,None,camera,new,board,[-0.008333333333333333],[-0.29],[1],[0],[0],[5.670854999916628],['text_3'],,,,,0,13,13,19,70.5073119001463,,,,,,,,70.48519760021009,70.5073119001463,70.5073119001463,70.5073119001463,0.0027652999851852655,76.15674970019609,board,[-0.008333333333333333],[-0.29],[1],[0],[0],[5.670854999916628],['text_3'],345202,001,2024-11-06_18h33.43.396,WORD PRIMING,2024.2.1post4,59.83881813034475,2024-11-06 18h33.51.591385 +0530,
,14,14,0,,,v_s_,vase,new,vase,[-0.008333333333333333],[-0.29],[1],[0],[0],[3.0443462000694126],['text_3'],,,,,0,14,14,17,76.18537389999256,,,,,,,,76.16151170013472,76.18537389999256,76.18537389999256,76.18537389999256,0.004664799897000194,79.20682150009088,vase,[-0.008333333333333333],[-0.29],[1],[0],[0],[3.0443462000694126],['text_3'],345202,001,2024-11-06_18h33.43.396,WORD PRIMING,2024.2.1post4,59.83881813034475,2024-11-06 18h33.51.591385 +0530,
,15,15,0,,,p_nc_l,pencil,new,pencil,[-0.008333333333333333],[-0.29],[1],[0],[0],[4.591672900132835],['text_3'],,,,,0,15,15,16,79.23289370001294,,,,,,,,79.2105122001376,79.23289370001294,79.23289370001294,79.23289370001294,0.0034950999543070793,83.80318170017563,pencil,[-0.008333333333333333],[-0.29],[1],[0],[0],[4.591672900132835],['text_3'],345202,001,2024-11-06_18h33.43.396,WORD PRIMING,2024.2.1post4,59.83881813034475,2024-11-06 18h33.51.591385 +0530,
,16,16,0,,,p_st_r,poster,old,poster,[0.006666666666666667],[-0.295],[1],[0],[0],[4.773145700106397],['text_3'],,,,,0,16,16,9,83.82863900018856,,,,,,,,83.8075897002127,83.82863900018856,83.82863900018856,83.82863900018856,0.004236799897626042,88.58162870001979,poster,[0.006666666666666667],[-0.295],[1],[0],[0],[4.773145700106397],['text_3'],345202,001,2024-11-06_18h33.43.396,WORD PRIMING,2024.2.1post4,59.83881813034475,2024-11-06 18h33.51.591385 +0530,
,17,17,0,,,_ha_t,Chart,old,that,[0.006666666666666667],[-0.295],[1],[0],[0],[3.957636000122875],['text_3'],,,,,0,17,17,1,88.60757610015571,,,,,,,,88.58441160013899,88.60757610015571,88.60757610015571,88.60757610015571,0.00268030003644526,92.54273610003293,that,[0.006666666666666667],[-0.295],[1],[0],[0],[3.957636000122875],['text_3'],345202,001,2024-11-06_18h33.43.396,WORD PRIMING,2024.2.1post4,59.83881813034475,2024-11-06 18h33.51.591385 +0530,
,18,18,0,,,bo_t_e,bottle,new,bottle,[0.006666666666666667],[-0.295],[1],[0],[0],[3.2923575998283923],['text_3'],,,,,0,18,18,18,92.57031590002589,,,,,,,,92.5456104001496,92.57031590002589,92.57031590002589,92.57031590002589,0.0027574999257922173,95.83859090018086,bottle,[0.006666666666666667],[-0.295],[1],[0],[0],[3.2923575998283923],['text_3'],345202,001,2024-11-06_18h33.43.396,WORD PRIMING,2024.2.1post4,59.83881813034475,2024-11-06 18h33.51.591385 +0530,
,19,19,0,,,l_pt_p,Laptop,old,laptop,[0.006666666666666667],[-0.295],[1],[0],[0],[4.328444899991155],['text_3'],,,,,0,19,19,0,95.86718660010956,,,,,,,,95.84169860021211,95.86718660010956,95.86718660010956,95.86718660010956,0.0029953999910503626,100.17083920002915,laptop,[0.006666666666666667],[-0.295],[1],[0],[0],[4.328444899991155],['text_3'],345202,001,2024-11-06_18h33.43.396,WORD PRIMING,2024.2.1post4,59.83881813034475,2024-11-06 18h33.51.591385 +0530,
