study_word,thisN,thisTrialN,thisRepN,slider.response,slider.rt,test_words,,,textbox.text,mouse.x,mouse.y,mouse.leftButton,mouse.midButton,mouse.rightButton,mouse.time,mouse.clicked_name,trials.thisRepN,trials.thisTrialN,trials.thisN,trials.thisIndex,trials_2.thisRepN,trials_2.thisTrialN,trials_2.thisN,trials_2.thisIndex,thisRow.t,notes,trial.started,text.started,slider.started,trial.stopped,trials.slider.response,trials.slider.rt,test.started,text_2.started,textbox.started,text_3.started,mouse.started,test.stopped,trials_2.textbox.text,trials_2.mouse.x,trials_2.mouse.y,trials_2.mouse.leftButton,trials_2.mouse.midButton,trials_2.mouse.rightButton,trials_2.mouse.time,trials_2.mouse.clicked_name,participant,session,date,expName,psychopyVersion,frameRate,expStart
,,,,,,,,,,,,,,,,,,,,,,,,,0.0861713,,0.0607434,0.0861713,0.0861713,4.8193348,1,4.7292794,,,,,,,,,,,,,,,851282,1,2024-11-06_17h53.00.705,WORD PRIMING,2024.2.1post4,60.13286954,2024-11-06 17h53.09.248066 +0530
,,,,,,,,,,,,,,,,,,,,,,,,,4.8483304,,4.8302967,4.8483304,4.8483304,5.8852398,1,1.0394704,,,,,,,,,,,,,,,851282,1,2024-11-06_17h53.00.705,WORD PRIMING,2024.2.1post4,60.13286954,2024-11-06 17h53.09.248066 +0530
,,,,,,,,,,,,,,,,,,,,,,,,,5.9141692,,5.8911214,5.9141692,5.9141692,6.7681459,1,0.8622921,,,,,,,,,,,,,,,851282,1,2024-11-06_17h53.00.705,WORD PRIMING,2024.2.1post4,60.13286954,2024-11-06 17h53.09.248066 +0530
,,,,,,,,,,,,,,,,,,,,,,,,,6.7969751,,6.7713722,6.7969751,6.7969751,7.7169989,1,0.9135823,,,,,,,,,,,,,,,851282,1,2024-11-06_17h53.00.705,WORD PRIMING,2024.2.1post4,60.13286954,2024-11-06 17h53.09.248066 +0530
,,,,,,,,,,,,,,,,,,,,,,,,,7.746017,,7.7201533,7.746017,7.746017,8.5337285,1,0.79936,,,,,,,,,,,,,,,851282,1,2024-11-06_17h53.00.705,WORD PRIMING,2024.2.1post4,60.13286954,2024-11-06 17h53.09.248066 +0530
,,,,,,,,,,,,,,,,,,,,,,,,,8.5621929,,8.5396594,8.5621929,8.5621929,9.5152848,1,0.9594265,,,,,,,,,,,,,,,851282,1,2024-11-06_17h53.00.705,WORD PRIMING,2024.2.1post4,60.13286954,2024-11-06 17h53.09.248066 +0530
,,,,,,,,,,,,,,,,,,,,,,,,,9.544,,9.5181439,9.544,9.544,10.4165692,1,0.8811836,,,,,,,,,,,,,,,851282,1,2024-11-06_17h53.00.705,WORD PRIMING,2024.2.1post4,60.13286954,2024-11-06 17h53.09.248066 +0530
,,,,,,,,,,,,,,,,,,,,,,,,,10.4433346,,10.4224652,10.4433346,10.4433346,11.2820815,1,0.8435994,,,,,,,,,,,,,,,851282,1,2024-11-06_17h53.00.705,WORD PRIMING,2024.2.1post4,60.13286954,2024-11-06 17h53.09.248066 +0530
,,,,,,,,,,,,,,,,,,,,,,,,,11.3092642,,11.2851702,11.3092642,11.3092642,12.2308218,1,0.9132458,,,,,,,,,,,,,,,851282,1,2024-11-06_17h53.00.705,WORD PRIMING,2024.2.1post4,60.13286954,2024-11-06 17h53.09.248066 +0530
,,,,,,,,,,,,,,,,,,,,,,,,,12.2583442,,12.2348753,12.2583442,12.2583442,13.1287675,1,0.8626118,,,,,,,,,,,,,,,851282,1,2024-11-06_17h53.00.705,WORD PRIMING,2024.2.1post4,60.13286954,2024-11-06 17h53.09.248066 +0530
,,,,,,,,,,,,,,,,,,,,,,,,,13.1575505,,13.1325563,13.1575505,13.1575505,14.0113154,1,0.863417,,,,,,,,,,,,,,,851282,1,2024-11-06_17h53.00.705,WORD PRIMING,2024.2.1post4,60.13286954,2024-11-06 17h53.09.248066 +0530
,,,,,,,,,,,,,,,,,,,,,,,,,14.0398304,,14.0145106,14.0398304,14.0398304,14.9097246,1,0.8642881,,,,,,,,,,,,,,,851282,1,2024-11-06_17h53.00.705,WORD PRIMING,2024.2.1post4,60.13286954,2024-11-06 17h53.09.248066 +0530
,,,,,,,,,,,,,,,,,,,,,,,,,14.9227388,,14.912726,14.9227388,14.9227388,15.8262633,1,0.8842828,,,,,,,,,,,,,,,851282,1,2024-11-06_17h53.00.705,WORD PRIMING,2024.2.1post4,60.13286954,2024-11-06 17h53.09.248066 +0530
,,,,,,,,,,,,,,,,,,,,,,,,,15.8549529,,15.8291928,15.8549529,15.8549529,16.6599411,1,0.7966414,,,,,,,,,,,,,,,851282,1,2024-11-06_17h53.00.705,WORD PRIMING,2024.2.1post4,60.13286954,2024-11-06 17h53.09.248066 +0530
,,,,,,,,,,,,,,,,,,,,,,,,,16.6874783,,16.6683012,16.6874783,16.6874783,17.4244691,1,0.7249524,,,,,,,,,,,,,,,851282,1,2024-11-06_17h53.00.705,WORD PRIMING,2024.2.1post4,60.13286954,2024-11-06 17h53.09.248066 +0530
,0,0,0,,,c_s_,,,case,[-0.09333333333333334],[-0.3],[1],[0],[0],[6.147118299966678],['text_3'],,,,,0,0,0,5,17.4706679,,,,,,,,17.442097,17.4706679,17.4706679,17.4706679,0.0176637,23.5900217,case,[-0.09333333333333334],[-0.3],[1],[0],[0],[6.147118299966678],['text_3'],851282,1,2024-11-06_17h53.00.705,WORD PRIMING,2024.2.1post4,60.13286954,2024-11-06 17h53.09.248066 +0530
,1,1,0,,,c_s_io_,,,cushion,[-0.015],[-0.295],[1],[0],[0],[3.8066512001678348],['text_3'],,,,,0,1,1,14,23.6144487,,,,,,,,23.594868,23.6144487,23.6144487,23.6144487,0.0046211,27.4023773,cushion,[-0.015],[-0.295],[1],[0],[0],[3.8066512001678348],['text_3'],851282,1,2024-11-06_17h53.00.705,WORD PRIMING,2024.2.1post4,60.13286954,2024-11-06 17h53.09.248066 +0530
,2,2,0,,,_ou_se,,,mouse,[-0.015],[-0.295],[1],[0],[0],[4.85632160003297],['text_3'],,,,,0,2,2,3,27.4282627,,,,,,,,27.4052339,27.4282627,27.4282627,27.4282627,0.0027615,32.2622327,mouse,[-0.015],[-0.295],[1],[0],[0],[4.85632160003297],['text_3'],851282,1,2024-11-06_17h53.00.705,WORD PRIMING,2024.2.1post4,60.13286954,2024-11-06 17h53.09.248066 +0530
,3,3,0,,,p_as_tr_,,,pastry,[],[],[],[],[],[],[],,,,,0,3,3,4,32.2904298,,,,,,,,32.2671528,32.2904298,32.2904298,32.2904298,0.0047162,42.2676719,pastry,[],[],[],[],[],[],[],851282,1,2024-11-06_17h53.00.705,WORD PRIMING,2024.2.1post4,60.13286954,2024-11-06 17h53.09.248066 +0530
,4,4,0,,,_o_rd,,,board,[],[],[],[],[],[],[],,,,,0,4,4,10,42.2976463,,,,,,,,42.270391,42.2976463,42.2976463,42.2976463,0.0079437,52.2769873,board,[],[],[],[],[],[],[],851282,1,2024-11-06_17h53.00.705,WORD PRIMING,2024.2.1post4,60.13286954,2024-11-06 17h53.09.248066 +0530
,5,5,0,,,p_nc_l,,,pencil,[0.021666666666666667],[-0.29833333333333334],[1],[0],[0],[8.337978899944574],['text_3'],,,,,0,5,5,16,52.3048024,,,,,,,,52.2820345,52.3048024,52.3048024,52.3048024,0.0196214,60.6209342,pencil,[0.021666666666666667],[-0.29833333333333334],[1],[0],[0],[8.337978899944574],['text_3'],851282,1,2024-11-06_17h53.00.705,WORD PRIMING,2024.2.1post4,60.13286954,2024-11-06 17h53.09.248066 +0530
,6,6,0,,,k_y_,,,keys,[0.021666666666666667],[-0.29833333333333334],[1],[0],[0],[6.03905070014298],['text_3'],,,,,0,6,6,8,60.646981,,,,,,,,60.6254013,60.646981,60.646981,60.646981,0.0042542,66.6653282,keys,[0.021666666666666667],[-0.29833333333333334],[1],[0],[0],[6.03905070014298],['text_3'],851282,1,2024-11-06_17h53.00.705,WORD PRIMING,2024.2.1post4,60.13286954,2024-11-06 17h53.09.248066 +0530
,7,7,0,,,_ha_t,,,chart,[0.021666666666666667],[-0.29833333333333334],[1],[0],[0],[9.836024100193754],['text_3'],,,,,0,7,7,1,66.6914071,,,,,,,,66.6695752,66.6914071,66.6914071,66.6914071,0.0040686,76.506467,chart,[0.021666666666666667],[-0.29833333333333334],[1],[0],[0],[9.836024100193754],['text_3'],851282,1,2024-11-06_17h53.00.705,WORD PRIMING,2024.2.1post4,60.13286954,2024-11-06 17h53.09.248066 +0530
,8,8,0,,,t_hi_t,,,tshirt,[0.021666666666666667],[-0.29833333333333334],[1],[0],[0],[9.318430700106546],['text_3'],,,,,0,8,8,2,76.5322137,,,,,,,,76.5115356,76.5322137,76.5322137,76.5322137,0.0048624,85.8309116,tshirt,[0.021666666666666667],[-0.29833333333333334],[1],[0],[0],[9.318430700106546],['text_3'],851282,1,2024-11-06_17h53.00.705,WORD PRIMING,2024.2.1post4,60.13286954,2024-11-06 17h53.09.248066 +0530
,9,9,0,,,p_li_e,,,"police
",[0.09],[-0.30833333333333335],[1],[0],[0],[4.3069103001616895],['text_3'],,,,,0,9,9,7,85.8568666,,,,,,,,85.8358572,85.8568666,85.8568666,85.8568666,0.0047843,90.1437889,"police
",[0.09],[-0.30833333333333335],[1],[0],[0],[4.3069103001616895],['text_3'],851282,1,2024-11-06_17h53.00.705,WORD PRIMING,2024.2.1post4,60.13286954,2024-11-06 17h53.09.248066 +0530
,10,10,0,,,_ru_is,,,"crusie
",[0.09],[-0.30833333333333335],[1],[0],[0],[6.3517432999797165],['text_3'],,,,,0,10,10,6,90.16909,,,,,,,,90.1484809,90.16909,90.16909,90.16909,0.0044862,96.5009294,"crusie
",[0.09],[-0.30833333333333335],[1],[0],[0],[6.3517432999797165],['text_3'],851282,1,2024-11-06_17h53.00.705,WORD PRIMING,2024.2.1post4,60.13286954,2024-11-06 17h53.09.248066 +0530
,11,11,0,,,_ho_e,,,,[],[],[],[],[],[],[],,,,,0,11,11,12,96.529869,,,,,,,,96.5038274,96.529869,96.529869,96.529869,0.0027968,106.510104,,[],[],[],[],[],[],[],851282,1,2024-11-06_17h53.00.705,WORD PRIMING,2024.2.1post4,60.13286954,2024-11-06 17h53.09.248066 +0530
,12,12,0,,,l_pt_p,,,,[],[],[],[],[],[],[],,,,,0,12,12,0,106.5378381,,,,,,,,106.513889,106.5378381,106.5378381,106.5378381,0.0128599,116.5149407,,[],[],[],[],[],[],[],851282,1,2024-11-06_17h53.00.705,WORD PRIMING,2024.2.1post4,60.13286954,2024-11-06 17h53.09.248066 +0530
,13,13,0,,,bo_t_e,,,bottle,[0.06666666666666667],[-0.30666666666666664],[1],[0],[0],[9.954280399950221],['text_3'],,,,,0,13,13,18,116.5447181,,,,,,,,116.5178803,116.5447181,116.5447181,116.5447181,0.0168595,126.4728519,bottle,[0.06666666666666667],[-0.30666666666666664],[1],[0],[0],[9.954280399950221],['text_3'],851282,1,2024-11-06_17h53.00.705,WORD PRIMING,2024.2.1post4,60.13286954,2024-11-06 17h53.09.248066 +0530
,14,14,0,,,None,,,bottle,[0.06666666666666667],[-0.30666666666666664],[1],[0],[0],[5.494027300039306],['text_3'],,,,,0,14,14,19,126.5016992,,,,,,,,126.4757089,126.5016992,126.5016992,126.5016992,0.00266,131.9705821,bottle,[0.06666666666666667],[-0.30666666666666664],[1],[0],[0],[5.494027300039306],['text_3'],851282,1,2024-11-06_17h53.00.705,WORD PRIMING,2024.2.1post4,60.13286954,2024-11-06 17h53.09.248066 +0530
,15,15,0,,,p_st_r,,,pastry,[],[],[],[],[],[],[],,,,,0,15,15,9,131.9964867,,,,,,,,131.9743686,131.9964867,131.9964867,131.9964867,0.0035644,141.9756341,pastry,[],[],[],[],[],[],[],851282,1,2024-11-06_17h53.00.705,WORD PRIMING,2024.2.1post4,60.13286954,2024-11-06 17h53.09.248066 +0530
,16,16,0,,,ta_l_,,,table,[],[],[],[],[],[],[],,,,,0,16,16,15,142.0047404,,,,,,,,141.9787712,142.0047404,142.0047404,142.0047404,0.0079642,151.9838768,table,[],[],[],[],[],[],[],851282,1,2024-11-06_17h53.00.705,WORD PRIMING,2024.2.1post4,60.13286954,2024-11-06 17h53.09.248066 +0530
,17,17,0,,,_a_bl_,,,marble,[0.06666666666666667],[-0.30666666666666664],[1],[0],[0],[7.9543177001178265],['text_3'],,,,,0,17,17,11,152.0110519,,,,,,,,151.9887989,152.0110519,152.0110519,152.0110519,0.0180305,159.9441146,marble,[0.06666666666666667],[-0.30666666666666664],[1],[0],[0],[7.9543177001178265],['text_3'],851282,1,2024-11-06_17h53.00.705,WORD PRIMING,2024.2.1post4,60.13286954,2024-11-06 17h53.09.248066 +0530
,18,18,0,,,_oo_,,,book,[0.06666666666666667],[-0.30666666666666664],[1],[0],[0],[6.088408899959177],['text_3'],,,,,0,18,18,13,159.9704712,,,,,,,,159.9484073,159.9704712,159.9704712,159.9704712,0.0041061,166.037888,book,[0.06666666666666667],[-0.30666666666666664],[1],[0],[0],[6.088408899959177],['text_3'],851282,1,2024-11-06_17h53.00.705,WORD PRIMING,2024.2.1post4,60.13286954,2024-11-06 17h53.09.248066 +0530
,19,19,0,,,v_s_,,,vase,[0.06666666666666667],[-0.30666666666666664],[1],[0],[0],[8.81855500000529],['text_3'],,,,,0,19,19,17,166.0646432,,,,,,,,166.0455175,166.0646432,166.0646432,166.0646432,0.0074113,174.8652093,vase,[0.06666666666666667],[-0.30666666666666664],[1],[0],[0],[8.81855500000529],['text_3'],851282,1,2024-11-06_17h53.00.705,WORD PRIMING,2024.2.1post4,60.13286954,2024-11-06 17h53.09.248066 +0530
,,,,,,,,,,,,,,,,,,,,,,,,,,,,,,,,,,,,,,,,,,,,,,,,,,,,,
,,,,,,,,,,,,,,,,,,,,,,,,,,,,,,,,,,,,,,,,,,,,,,,,,,,,,
,,,,,,,,,,,,,,,,,,,,,,,,,,,,,,,,,,,,,,,,,,,,,,,,,,,,,
,,,,,,,,,,,,,,,,,,,,,,,,,,,,,,,,,,,,,,,,,,,,,,,,,,,,,
,,,,,,,,,,,,,,,,,,,,,,,,,,,,,,,,,,,,,,,,,,,,,,,,,,,,,
,,,,,,prop hit from study list ,18,0.9,,,,,,,,,,,,,,,,,,,,,,,,,,,,,,,,,,,,,,,,,,,,,
,,,,,,prop hit for non prime words,2,0.1,,,,,,,,,,,,,,,,,,,,,,,,,,,,,,,,,,,,,,,,,,,,,
,,,,,,,,,,,,,,,,,,,,,,,,,,,,,,,,,,,,,,,,,,,,,,,,,,,,,
,,,,,,,,,,,,,,,,,,,,,,,,,,,,,,,,,,,,,,,,,,,,,,,,,,,,,
,,,,,,Priming score,0.8,,,,,,,,,,,,,,,,,,,,,,,,,,,,,,,,,,,,,,,,,,,,,,
